Timestamp,QI,QJ,QK,QR,AX,AY,AZ,GX,GY,GZ
293405580,-0.018798841163516045,-0.011169441975653172,0.9676520824432373,0.2514039874076843,-0.30468761920928955,-0.30468761920928955,9.648441314697266,0.0,0.0,0.0
293410824,-0.018798841163516045,-0.011169441975653172,0.9676520824432373,0.2514039874076843,-0.26953133940696716,-0.26953133940696716,9.691410064697266,0.0,0.0,0.0
293416268,-0.018798841163516045,-0.011169441975653172,0.9676520824432373,0.2514039874076843,-0.26953133940696716,-0.26953133940696716,9.691410064697266,0.0,0.0,0.0
293422156,-0.018798841163516045,-0.011169441975653172,0.9676520824432373,0.2514039874076843,-0.34375011920928955,-0.30468761920928955,9.687503814697266,0.0,0.0,0.0
293427532,-0.018798841163516045,-0.011169441975653172,0.9676520824432373,0.2514039874076843,-0.34375011920928955,-0.30468761920928955,9.687503814697266,0.0,0.0,0.0
293433304,-0.018798841163516045,-0.011169441975653172,0.9676520824432373,0.2514039874076843,-0.30468761920928955,-0.30468761920928955,9.648441314697266,0.0,0.0,0.0
293437988,-0.018798841163516045,-0.011169441975653172,0.9676520824432373,0.2514039874076843,-0.30468761920928955,-0.30468761920928955,9.691410064697266,0.0,0.0,0.0
293443384,-0.018798841163516045,-0.011169441975653172,0.9676520824432373,0.2514039874076843,-0.30468761920928955,-0.30468761920928955,9.648441314697266,0.0,0.0,0.0
293447728,-0.018798841163516045,-0.011169441975653172,0.9676520824432373,0.2514039874076843,-0.26953133940696716,-0.30468761920928955,9.652347564697266,0.0,0.0,0.0
293453088,-0.018798841163516045,-0.011169441975653172,0.9676520824432373,0.2514039874076843,-0.30468761920928955,-0.30468761920928955,9.691410064697266,0.0,0.0,0.0
293458328,-0.018798841163516045,-0.011169441975653172,0.9676520824432373,0.2514039874076843,-0.26953133940696716,-0.30468761920928955,9.613285064697266,0.0,0.0,0.0
293463728,-0.018798841163516045,-0.011169441975653172,0.9676520824432373,0.2514039874076843,-0.30468761920928955,-0.26953133940696716,9.652347564697266,0.0,0.0,0.0
293468964,-0.018798841163516045,-0.011169441975653172,0.9676520824432373,0.2514039874076843,-0.30468761920928955,-0.26953133940696716,9.687503814697266,0.0,0.0,0.0
293474428,-0.018798841163516045,-0.011169441975653172,0.9676520824432373,0.2514039874076843,-0.30468761920928955,-0.26953133940696716,9.687503814697266,0.0,0.0,0.0
293479656,-0.018798841163516045,-0.011169441975653172,0.9676520824432373,0.2514039874076843,-0.30468761920928955,-0.30468761920928955,9.691410064697266,0.0,0.0,0.0
293484744,-0.018798841163516045,-0.011169441975653172,0.9676520824432373,0.2514039874076843,-0.30468761920928955,-0.30468761920928955,9.691410064697266,0.0,0.0,0.0
293489420,-0.018798841163516045,-0.011169441975653172,0.9676520824432373,0.2514039874076843,-0.30468761920928955,-0.26953133940696716,9.578128814697266,0.0,0.0,0.0
293494604,-0.018798841163516045,-0.011169441975653172,0.9676520824432373,0.2514039874076843,-0.30468761920928955,-0.26953133940696716,9.578128814697266,0.0,0.0,0.0
293499832,-0.018798841163516045,-0.011169441975653172,0.9676520824432373,0.2514039874076843,-0.30468761920928955,-0.30468761920928955,9.648441314697266,0.0,0.0,0.0
293504884,-0.018798841163516045,-0.011169441975653172,0.9676520824432373,0.2514039874076843,-0.30468761920928955,-0.30468761920928955,9.648441314697266,0.0,0.0,0.0
293510944,-0.018798841163516045,-0.011169441975653172,0.9676520824432373,0.2514039874076843,-0.26953133940696716,-0.34375011920928955,9.691410064697266,0.0,0.0,0.0
293516692,-0.018798841163516045,-0.011169441975653172,0.9676520824432373,0.2514039874076843,-0.26953133940696716,-0.34375011920928955,9.691410064697266,0.0,0.0,0.0
293521496,-0.018798841163516045,-0.011169441975653172,0.9676520824432373,0.2514039874076843,-0.26953133940696716,-0.30468761920928955,9.726566314697266,0.0,0.0,0.0
293526912,-0.018798841163516045,-0.011169441975653172,0.9676520824432373,0.2514039874076843,-0.26953133940696716,-0.30468761920928955,9.726566314697266,0.0,0.0,0.0
293532312,-0.018798841163516045,-0.011169441975653172,0.9676520824432373,0.2514039874076843,-0.30468761920928955,-0.34375011920928955,9.687503814697266,0.0,0.0,0.0
293537028,-0.018798841163516045,-0.011169441975653172,0.9676520824432373,0.2514039874076843,-0.30468761920928955,-0.30468761920928955,9.648441314697266,0.0,0.0,0.0
293542432,-0.018798841163516045,-0.011169441975653172,0.9676520824432373,0.2514039874076843,-0.26953133940696716,-0.30468761920928955,9.687503814697266,0.0,0.0,0.0
293546772,-0.018798841163516045,-0.011169441975653172,0.9676520824432373,0.2514039874076843,-0.30468761920928955,-0.30468761920928955,9.648441314697266,0.0,0.0,0.0
293552152,-0.018798841163516045,-0.011169441975653172,0.9676520824432373,0.2514039874076843,-0.26953133940696716,-0.30468761920928955,9.687503814697266,0.0,0.0,0.0
293556840,-0.018798841163516045,-0.011169441975653172,0.9676520824432373,0.2514039874076843,-0.30468761920928955,-0.34375011920928955,9.652347564697266,0.0,0.0,0.0
293562224,-0.018798841163516045,-0.011169441975653172,0.9676520824432373,0.2514039874076843,-0.26953133940696716,-0.30468761920928955,9.652347564697266,0.0,0.0,0.0
293567512,-0.018798841163516045,-0.011169441975653172,0.9676520824432373,0.2514039874076843,-0.30468761920928955,-0.26953133940696716,9.613285064697266,0.0,0.0,0.0
293571808,-0.018798841163516045,-0.011169441975653172,0.9676520824432373,0.2514039874076843,-0.30468761920928955,-0.26953133940696716,9.613285064697266,0.0,0.0,0.0
293576288,-0.018798841163516045,-0.011230477131903172,0.9676520824432373,0.2514039874076843,-0.30468761920928955,-0.26953133940696716,9.613285064697266,0.0,0.0,0.0
293581676,-0.018798841163516045,-0.011230477131903172,0.9676520824432373,0.2514039874076843,-0.26953133940696716,-0.30468761920928955,9.687503814697266,0.0,0.0,0.0
293586004,-0.018798841163516045,-0.011230477131903172,0.9676520824432373,0.2514039874076843,-0.34375011920928955,-0.26953133940696716,9.648441314697266,0.0,0.0,0.0
293591832,-0.018798841163516045,-0.011230477131903172,0.9676520824432373,0.2514039874076843,-0.34375011920928955,-0.26953133940696716,9.648441314697266,0.0,0.0,0.0
293597256,-0.018798841163516045,-0.011230477131903172,0.9676520824432373,0.2514039874076843,-0.26953133940696716,-0.26953133940696716,9.648441314697266,0.0,0.0,0.0
293603012,-0.018798841163516045,-0.011230477131903172,0.9676520824432373,0.2514039874076843,-0.26953133940696716,-0.34375011920928955,9.648441314697266,0.0,0.0,0.0
293607672,-0.018798841163516045,-0.011230477131903172,0.9676520824432373,0.2514039874076843,-0.26953133940696716,-0.30468761920928955,9.687503814697266,0.0,0.0,0.0
293613064,-0.018798841163516045,-0.011230477131903172,0.9676520824432373,0.2514039874076843,-0.30468761920928955,-0.34375011920928955,9.652347564697266,0.0,0.0,0.0
293618296,-0.018798841163516045,-0.011230477131903172,0.9676520824432373,0.2514039874076843,-0.30468761920928955,-0.30468761920928955,9.648441314697266,0.0,0.0,0.0
293624396,-0.018798841163516045,-0.011230477131903172,0.9676520824432373,0.2514039874076843,-0.30468761920928955,-0.30468761920928955,9.648441314697266,0.0,0.0,0.0
293629176,-0.018798841163516045,-0.011230477131903172,0.9676520824432373,0.2514039874076843,-0.26953133940696716,-0.30468761920928955,9.652347564697266,0.0,0.0,0.0
293634556,-0.018798841163516045,-0.011230477131903172,0.9676520824432373,0.2514039874076843,-0.26953133940696716,-0.30468761920928955,9.652347564697266,0.0,0.0,0.0
293640124,-0.018798841163516045,-0.011230477131903172,0.9676520824432373,0.2514039874076843,-0.30468761920928955,-0.34375011920928955,9.687503814697266,0.0,0.0,0.0
293645544,-0.018798841163516045,-0.011230477131903172,0.9676520824432373,0.2514039874076843,-0.30468761920928955,-0.34375011920928955,9.687503814697266,0.0,0.0,0.0
293650932,-0.018798841163516045,-0.011230477131903172,0.9676520824432373,0.2514039874076843,-0.26953133940696716,-0.34375011920928955,9.648441314697266,0.0,0.0,0.0
293656184,-0.018798841163516045,-0.011230477131903172,0.9676520824432373,0.2514039874076843,-0.30468761920928955,-0.26953133940696716,9.613285064697266,0.0,0.0,0.0
293661944,-0.018798841163516045,-0.011230477131903172,0.9676520824432373,0.2514039874076843,-0.26953133940696716,-0.26953133940696716,9.648441314697266,0.0,0.0,0.0
293667332,-0.018798841163516045,-0.011230477131903172,0.9676520824432373,0.2514039874076843,-0.30468761920928955,-0.26953133940696716,9.613285064697266,0.0,0.0,0.0
293672888,-0.018798841163516045,-0.011230477131903172,0.9676520824432373,0.2514039874076843,-0.30468761920928955,-0.30468761920928955,9.691410064697266,0.0,0.0,0.0
293678164,-0.018798841163516045,-0.011230477131903172,0.9676520824432373,0.2514039874076843,-0.30468761920928955,-0.30468761920928955,9.648441314697266,0.0,0.0,0.0
293683188,-0.018798841163516045,-0.011230477131903172,0.9676520824432373,0.2514039874076843,-0.30468761920928955,-0.30468761920928955,9.648441314697266,0.0,0.0,0.0
293687848,-0.018798841163516045,-0.011230477131903172,0.9676520824432373,0.2514039874076843,-0.26953133940696716,-0.30468761920928955,9.652347564697266,0.0,0.0,0.0
293692880,-0.018798841163516045,-0.011230477131903172,0.9676520824432373,0.2514039874076843,-0.26953133940696716,-0.30468761920928955,9.652347564697266,0.0,0.0,0.0
293698140,-0.018798841163516045,-0.011230477131903172,0.9676520824432373,0.2514039874076843,-0.30468761920928955,-0.26953133940696716,9.578128814697266,0.0,0.0,0.0
293703900,-0.018798841163516045,-0.011230477131903172,0.9676520824432373,0.2514039874076843,-0.30468761920928955,-0.26953133940696716,9.578128814697266,0.0,0.0,0.0
293710408,-0.018798841163516045,-0.011230477131903172,0.9676520824432373,0.2514039874076843,-0.30468761920928955,-0.30468761920928955,9.648441314697266,0.0,0.0,0.0
293715716,-0.018798841163516045,-0.011230477131903172,0.9676520824432373,0.2514039874076843,-0.34375011920928955,-0.30468761920928955,9.652347564697266,0.0,0.0,0.0
293721112,-0.018798841163516045,-0.011230477131903172,0.9676520824432373,0.2514039874076843,-0.26953133940696716,-0.30468761920928955,9.652347564697266,0.0,0.0,0.0
293726380,-0.018798841163516045,-0.011230477131903172,0.9676520824432373,0.2514039874076843,-0.26953133940696716,-0.30468761920928955,9.687503814697266,0.0,0.0,0.0
293731760,-0.018798841163516045,-0.011230477131903172,0.9676520824432373,0.2514039874076843,-0.26953133940696716,-0.30468761920928955,9.687503814697266,0.0,0.0,0.0
293736456,-0.018798841163516045,-0.011230477131903172,0.9676520824432373,0.2514039874076843,-0.26953133940696716,-0.30468761920928955,9.652347564697266,0.0,0.0,0.0
293742232,-0.018798841163516045,-0.011230477131903172,0.9676520824432373,0.2514039874076843,-0.26953133940696716,-0.30468761920928955,9.652347564697266,0.0,0.0,0.0
293746892,-0.018798841163516045,-0.011230477131903172,0.9676520824432373,0.2514039874076843,-0.26953133940696716,-0.30468761920928955,9.613285064697266,0.0,0.0,0.0
293752568,-0.018798841163516045,-0.011230477131903172,0.9676520824432373,0.2514039874076843,-0.26953133940696716,-0.30468761920928955,9.613285064697266,0.0,0.0,0.0
293757844,-0.018798841163516045,-0.011230477131903172,0.9676520824432373,0.2514039874076843,-0.30468761920928955,-0.26953133940696716,9.613285064697266,0.0,0.0,0.0
293762928,-0.018798841163516045,-0.011230477131903172,0.9676520824432373,0.2514039874076843,-0.30468761920928955,-0.26953133940696716,9.613285064697266,0.0,0.0,0.0
293767580,-0.018798841163516045,-0.011230477131903172,0.9676520824432373,0.2514039874076843,-0.26953133940696716,-0.30468761920928955,9.613285064697266,0.0,0.0,0.0
293772984,-0.018798841163516045,-0.011230477131903172,0.9676520824432373,0.2514039874076843,-0.26953133940696716,-0.30468761920928955,9.613285064697266,0.0,0.0,0.0
293777648,-0.018798841163516045,-0.011230477131903172,0.9676520824432373,0.2514039874076843,-0.30468761920928955,-0.26953133940696716,9.687503814697266,0.0,0.0,0.0
293783216,-0.018798841163516045,-0.011230477131903172,0.9676520824432373,0.2514039874076843,-0.30468761920928955,-0.26953133940696716,9.687503814697266,0.0,0.0,0.0
293789440,-0.018798841163516045,-0.011230477131903172,0.9676520824432373,0.2514039874076843,-0.23046883940696716,-0.30468761920928955,9.648441314697266,0.0,0.0,0.0
293794840,-0.018798841163516045,-0.011230477131903172,0.9676520824432373,0.2514039874076843,-0.26953133940696716,-0.30468761920928955,9.652347564697266,0.0,0.0,0.0
293800616,-0.018798841163516045,-0.011230477131903172,0.9676520824432373,0.2514039874076843,-0.30468761920928955,-0.34375011920928955,9.687503814697266,0.0,0.0,0.0
293805300,-0.018798841163516045,-0.011230477131903172,0.9676520824432373,0.2514039874076843,-0.34375011920928955,-0.30468761920928955,9.652347564697266,0.0,0.0,0.0
293810372,-0.018798841163516045,-0.011230477131903172,0.9676520824432373,0.2514039874076843,-0.34375011920928955,-0.30468761920928955,9.652347564697266,0.0,0.0,0.0
293815600,-0.018798841163516045,-0.011230477131903172,0.9676520824432373,0.2514039874076843,-0.30468761920928955,-0.26953133940696716,9.613285064697266,0.0,0.0,0.0
293820988,-0.018798841163516045,-0.011230477131903172,0.9676520824432373,0.2514039874076843,-0.30468761920928955,-0.26953133940696716,9.613285064697266,0.0,0.0,0.0
293825684,-0.018798841163516045,-0.011230477131903172,0.9676520824432373,0.2514039874076843,-0.30468761920928955,-0.34375011920928955,9.652347564697266,0.0,0.0,0.0
293831204,-0.018798841163516045,-0.011230477131903172,0.9676520824432373,0.2514039874076843,-0.30468761920928955,-0.34375011920928955,9.652347564697266,0.0,0.0,0.0
293836488,-0.018798841163516045,-0.011230477131903172,0.9676520824432373,0.2514039874076843,-0.26953133940696716,-0.34375011920928955,9.609378814697266,0.0,0.0,0.0
293842116,-0.018798841163516045,-0.011230477131903172,0.9676520824432373,0.2514039874076843,-0.26953133940696716,-0.34375011920928955,9.609378814697266,0.0,0.0,0.0
293846412,-0.018798841163516045,-0.011230477131903172,0.9676520824432373,0.2514039874076843,-0.34375011920928955,-0.30468761920928955,9.652347564697266,0.0,0.0,0.0
293851820,-0.018798841163516045,-0.011230477131903172,0.9676520824432373,0.2514039874076843,-0.34375011920928955,-0.30468761920928955,9.652347564697266,0.0,0.0,0.0
293856560,-0.018798841163516045,-0.011230477131903172,0.9676520824432373,0.2514039874076843,-0.26953133940696716,-0.30468761920928955,9.652347564697266,0.0,0.0,0.0
293861652,-0.018798841163516045,-0.011230477131903172,0.9676520824432373,0.2514039874076843,-0.26953133940696716,-0.30468761920928955,9.652347564697266,0.0,0.0,0.0
293867528,-0.018798841163516045,-0.011230477131903172,0.9676520824432373,0.2514039874076843,-0.23046883940696716,-0.30468761920928955,9.609378814697266,0.0,0.0,0.0
293872892,-0.018798841163516045,-0.011230477131903172,0.9676520824432373,0.2514039874076843,-0.26953133940696716,-0.26953133940696716,9.648441314697266,0.0,0.0,0.0
293878260,-0.018798841163516045,-0.011230477131903172,0.9676520824432373,0.2514039874076843,-0.26953133940696716,-0.30468761920928955,9.687503814697266,0.0,0.0,0.0
293883180,-0.018798841163516045,-0.011230477131903172,0.9676520824432373,0.2514039874076843,-0.26953133940696716,-0.30468761920928955,9.687503814697266,0.0,0.0,0.0
293889000,-0.018798841163516045,-0.011230477131903172,0.9676520824432373,0.2514039874076843,-0.30468761920928955,-0.34375011920928955,9.652347564697266,0.0,0.0,0.0
293894596,-0.018798841163516045,-0.011230477131903172,0.9676520824432373,0.2514039874076843,-0.26953133940696716,-0.30468761920928955,9.687503814697266,0.0,0.0,0.0
293900016,-0.018798841163516045,-0.011230477131903172,0.9676520824432373,0.2514039874076843,-0.26953133940696716,-0.30468761920928955,9.687503814697266,0.0,0.0,0.0
293904716,-0.018798841163516045,-0.011230477131903172,0.9676520824432373,0.2514039874076843,-0.26953133940696716,-0.34375011920928955,9.609378814697266,0.0,0.0,0.0
293909740,-0.018798841163516045,-0.011230477131903172,0.9676520824432373,0.2514039874076843,-0.26953133940696716,-0.34375011920928955,9.609378814697266,0.0,0.0,0.0
293914412,-0.018798841163516045,-0.011230477131903172,0.9676520824432373,0.2514039874076843,-0.26953133940696716,-0.34375011920928955,9.648441314697266,0.0,0.0,0.0
293919804,-0.018798841163516045,-0.011230477131903172,0.9676520824432373,0.2514039874076843,-0.26953133940696716,-0.34375011920928955,9.648441314697266,0.0,0.0,0.0
293924480,-0.018798841163516045,-0.011230477131903172,0.9676520824432373,0.2514039874076843,-0.30468761920928955,-0.30468761920928955,9.609378814697266,0.0,0.0,0.0
293930248,-0.018798841163516045,-0.011230477131903172,0.9676520824432373,0.2514039874076843,-0.30468761920928955,-0.30468761920928955,9.609378814697266,0.0,0.0,0.0
293935488,-0.018798841163516045,-0.011230477131903172,0.9676520824432373,0.2514039874076843,-0.34375011920928955,-0.30468761920928955,9.652347564697266,0.0,0.0,0.0
293941268,-0.018798841163516045,-0.011230477131903172,0.9676520824432373,0.2514039874076843,-0.34375011920928955,-0.30468761920928955,9.652347564697266,0.0,0.0,0.0
293945572,-0.018798841163516045,-0.011230477131903172,0.9676520824432373,0.2514039874076843,-0.34375011920928955,-0.30468761920928955,9.578128814697266,0.0,0.0,0.0
293950732,-0.018798841163516045,-0.011230477131903172,0.9676520824432373,0.2514039874076843,-0.34375011920928955,-0.30468761920928955,9.578128814697266,0.0,0.0,0.0
293955996,-0.018798841163516045,-0.011230477131903172,0.9676520824432373,0.2514039874076843,-0.30468761920928955,-0.30468761920928955,9.648441314697266,0.0,0.0,0.0
293961012,-0.018798841163516045,-0.011230477131903172,0.9676520824432373,0.2514039874076843,-0.30468761920928955,-0.30468761920928955,9.648441314697266,0.0,0.0,0.0
293966780,-0.018798841163516045,-0.011230477131903172,0.9676520824432373,0.2514039874076843,-0.34375011920928955,-0.34375011920928955,9.648441314697266,0.0,0.0,0.0
293972052,-0.018798841163516045,-0.011230477131903172,0.9676520824432373,0.2514039874076843,-0.30468761920928955,-0.30468761920928955,9.691410064697266,0.0,0.0,0.0
293977424,-0.018798841163516045,-0.011230477131903172,0.9676520824432373,0.2514039874076843,-0.26953133940696716,-0.30468761920928955,9.687503814697266,0.0,0.0,0.0
293982128,-0.018798841163516045,-0.011230477131903172,0.9676520824432373,0.2514039874076843,-0.34375011920928955,-0.30468761920928955,9.652347564697266,0.0,0.0,0.0
293987692,-0.018798841163516045,-0.011230477131903172,0.9676520824432373,0.2514039874076843,-0.30468761920928955,-0.26953133940696716,9.613285064697266,0.0,0.0,0.0
293992936,-0.018798841163516045,-0.011230477131903172,0.9676520824432373,0.2514039874076843,-0.26953133940696716,-0.30468761920928955,9.687503814697266,0.0,0.0,0.0
293998020,-0.018798841163516045,-0.011230477131903172,0.9676520824432373,0.2514039874076843,-0.26953133940696716,-0.30468761920928955,9.687503814697266,0.0,0.0,0.0
294003340,-0.018798841163516045,-0.011230477131903172,0.9676520824432373,0.2514039874076843,-0.23046883940696716,-0.26953133940696716,9.652347564697266,0.0,0.0,0.0
294008740,-0.018798841163516045,-0.011230477131903172,0.9676520824432373,0.2514039874076843,-0.23046883940696716,-0.26953133940696716,9.652347564697266,0.0,0.0,0.0
294013432,-0.018798841163516045,-0.011230477131903172,0.9676520824432373,0.2514039874076843,-0.23046883940696716,-0.30468761920928955,9.609378814697266,0.0,0.0,0.0
294019368,-0.018798841163516045,-0.011230477131903172,0.9676520824432373,0.2514039874076843,-0.23046883940696716,-0.30468761920928955,9.609378814697266,0.0,0.0,0.0
294024688,-0.018798841163516045,-0.011230477131903172,0.9676520824432373,0.2514039874076843,-0.26953133940696716,-0.30468761920928955,9.578128814697266,0.0,0.0,0.0
294030132,-0.018798841163516045,-0.011230477131903172,0.9676520824432373,0.2514039874076843,-0.26953133940696716,-0.30468761920928955,9.578128814697266,0.0,0.0,0.0
294035388,-0.018798841163516045,-0.011230477131903172,0.9676520824432373,0.2514039874076843,-0.26953133940696716,-0.30468761920928955,9.613285064697266,0.0,0.0,0.0
294040472,-0.018798841163516045,-0.011230477131903172,0.9676520824432373,0.2514039874076843,-0.26953133940696716,-0.30468761920928955,9.613285064697266,0.0,0.0,0.0
294046252,-0.018798841163516045,-0.011230477131903172,0.9676520824432373,0.2514039874076843,-0.26953133940696716,-0.30468761920928955,9.652347564697266,0.0,0.0,0.0
294050964,-0.018798841163516045,-0.011230477131903172,0.9676520824432373,0.2514039874076843,-0.30468761920928955,-0.30468761920928955,9.691410064697266,0.0,0.0,0.0
294056340,-0.018798841163516045,-0.011230477131903172,0.9676520824432373,0.2514039874076843,-0.26953133940696716,-0.30468761920928955,9.613285064697266,0.0,0.0,0.0
294061168,-0.018798841163516045,-0.011230477131903172,0.9676520824432373,0.2514039874076843,-0.30468761920928955,-0.34375011920928955,9.652347564697266,0.0,0.0,0.0
294066568,-0.018798841163516045,-0.011230477131903172,0.9676520824432373,0.2514039874076843,-0.30468761920928955,-0.30468761920928955,9.609378814697266,0.0,0.0,0.0
294071824,-0.018798841163516045,-0.011230477131903172,0.9676520824432373,0.2514039874076843,-0.34375011920928955,-0.30468761920928955,9.652347564697266,0.0,0.0,0.0
294078092,-0.018798841163516045,-0.011230477131903172,0.9676520824432373,0.2514039874076843,-0.30468761920928955,-0.26953133940696716,9.687503814697266,0.0,0.0,0.0
294082792,-0.018798841163516045,-0.011230477131903172,0.9676520824432373,0.2514039874076843,-0.30468761920928955,-0.26953133940696716,9.613285064697266,0.0,0.0,0.0
294087836,-0.018798841163516045,-0.011230477131903172,0.9676520824432373,0.2514039874076843,-0.30468761920928955,-0.26953133940696716,9.613285064697266,0.0,0.0,0.0
294093088,-0.018798841163516045,-0.011230477131903172,0.9676520824432373,0.2514039874076843,-0.26953133940696716,-0.26953133940696716,9.691410064697266,0.0,0.0,0.0
294098492,-0.018798841163516045,-0.011230477131903172,0.9676520824432373,0.2514039874076843,-0.26953133940696716,-0.26953133940696716,9.691410064697266,0.0,0.0,0.0
294103164,-0.018798841163516045,-0.011230477131903172,0.9676520824432373,0.2514039874076843,-0.34375011920928955,-0.30468761920928955,9.652347564697266,0.0,0.0,0.0
294108572,-0.018798841163516045,-0.011230477131903172,0.9676520824432373,0.2514039874076843,-0.34375011920928955,-0.30468761920928955,9.652347564697266,0.0,0.0,0.0
294113256,-0.018798841163516045,-0.011230477131903172,0.9676520824432373,0.2514039874076843,-0.26953133940696716,-0.34375011920928955,9.648441314697266,0.0,0.0,0.0
294118636,-0.018798841163516045,-0.011230477131903172,0.9676520824432373,0.2514039874076843,-0.26953133940696716,-0.34375011920928955,9.648441314697266,0.0,0.0,0.0
294123892,-0.018798841163516045,-0.011230477131903172,0.9676520824432373,0.2514039874076843,-0.30468761920928955,-0.30468761920928955,9.648441314697266,0.0,0.0,0.0
294129668,-0.018798841163516045,-0.011230477131903172,0.9676520824432373,0.2514039874076843,-0.30468761920928955,-0.30468761920928955,9.648441314697266,0.0,0.0,0.0
294134940,-0.018798841163516045,-0.011230477131903172,0.9676520824432373,0.2514039874076843,-0.26953133940696716,-0.30468761920928955,9.687503814697266,0.0,0.0,0.0
294139964,-0.018737806007266045,-0.011352547444403172,0.9676520824432373,0.2514039874076843,-0.26953133940696716,-0.30468761920928955,9.687503814697266,0.0,0.0,0.0
294145620,-0.018737806007266045,-0.011352547444403172,0.9676520824432373,0.2514039874076843,-0.26953133940696716,-0.34375011920928955,9.691410064697266,0.0,0.0,0.0
294150296,-0.018737806007266045,-0.011352547444403172,0.9676520824432373,0.2514039874076843,-0.26953133940696716,-0.30468761920928955,9.652347564697266,0.0,0.0,0.0
294155668,-0.018737806007266045,-0.011352547444403172,0.9676520824432373,0.2514039874076843,-0.23046883940696716,-0.30468761920928955,9.648441314697266,0.0,0.0,0.0
294160332,-0.018737806007266045,-0.011352547444403172,0.9676520824432373,0.2514039874076843,-0.30468761920928955,-0.30468761920928955,9.648441314697266,0.0,0.0,0.0
294165724,-0.018737806007266045,-0.011352547444403172,0.9676520824432373,0.2514039874076843,-0.30468761920928955,-0.30468761920928955,9.648441314697266,0.0,0.0,0.0
294170972,-0.018737806007266045,-0.011352547444403172,0.9676520824432373,0.2514039874076843,-0.26953133940696716,-0.30468761920928955,9.613285064697266,0.0,0.0,0.0
294176460,-0.018737806007266045,-0.011352547444403172,0.9676520824432373,0.2514039874076843,-0.26953133940696716,-0.30468761920928955,9.613285064697266,0.0,0.0,0.0
294181124,-0.018737806007266045,-0.011352547444403172,0.9676520824432373,0.2514039874076843,-0.26953133940696716,-0.30468761920928955,9.652347564697266,0.0,0.0,0.0
294186152,-0.018737806007266045,-0.011352547444403172,0.9676520824432373,0.2514039874076843,-0.26953133940696716,-0.30468761920928955,9.652347564697266,0.0,0.0,0.0
294191404,-0.018737806007266045,-0.011352547444403172,0.9676520824432373,0.2514039874076843,-0.34375011920928955,-0.34375011920928955,9.648441314697266,0.0,0.0,0.0
294196460,-0.018737806007266045,-0.011352547444403172,0.9676520824432373,0.2514039874076843,-0.34375011920928955,-0.34375011920928955,9.648441314697266,0.0,0.0,0.0
294201772,-0.018737806007266045,-0.011352547444403172,0.9676520824432373,0.2514039874076843,-0.26953133940696716,-0.26953133940696716,9.609378814697266,0.0,0.0,0.0
294207824,-0.018737806007266045,-0.011352547444403172,0.9676520824432373,0.2514039874076843,-0.26953133940696716,-0.26953133940696716,9.609378814697266,0.0,0.0,0.0
294212500,-0.018737806007266045,-0.011352547444403172,0.9676520824432373,0.2514039874076843,-0.34375011920928955,-0.30468761920928955,9.613285064697266,0.0,0.0,0.0
294218300,-0.018737806007266045,-0.011352547444403172,0.9676520824432373,0.2514039874076843,-0.34375011920928955,-0.30468761920928955,9.613285064697266,0.0,0.0,0.0
294224080,-0.018737806007266045,-0.011352547444403172,0.9676520824432373,0.2514039874076843,-0.30468761920928955,-0.23046883940696716,9.609378814697266,0.0,0.0,0.0
294228756,-0.018737806007266045,-0.011352547444403172,0.9676520824432373,0.2514039874076843,-0.34375011920928955,-0.30468761920928955,9.613285064697266,0.0,0.0,0.0
294234484,-0.018737806007266045,-0.011352547444403172,0.9676520824432373,0.2514039874076843,-0.30468761920928955,-0.34375011920928955,9.687503814697266,0.0,0.0,0.0
294239148,-0.018737806007266045,-0.011352547444403172,0.9676520824432373,0.2514039874076843,-0.30468761920928955,-0.30468761920928955,9.648441314697266,0.0,0.0,0.0
294244700,-0.018737806007266045,-0.011352547444403172,0.9676520824432373,0.2514039874076843,-0.26953133940696716,-0.34375011920928955,9.691410064697266,0.0,0.0,0.0
294249372,-0.018737806007266045,-0.011352547444403172,0.9676520824432373,0.2514039874076843,-0.34375011920928955,-0.26953133940696716,9.648441314697266,0.0,0.0,0.0
294254744,-0.018737806007266045,-0.011352547444403172,0.9676520824432373,0.2514039874076843,-0.26953133940696716,-0.26953133940696716,9.648441314697266,0.0,0.0,0.0
294260036,-0.018737806007266045,-0.011352547444403172,0.9676520824432373,0.2514039874076843,-0.30468761920928955,-0.26953133940696716,9.613285064697266,0.0,0.0,0.0
294265436,-0.018737806007266045,-0.011352547444403172,0.9676520824432373,0.2514039874076843,-0.30468761920928955,-0.26953133940696716,9.613285064697266,0.0,0.0,0.0
294270680,-0.018737806007266045,-0.011352547444403172,0.9676520824432373,0.2514039874076843,-0.34375011920928955,-0.34375011920928955,9.582035064697266,0.0,0.0,0.0
294276676,-0.018737806007266045,-0.011352547444403172,0.9676520824432373,0.2514039874076843,-0.34375011920928955,-0.34375011920928955,9.582035064697266,0.0,0.0,0.0
294281444,-0.018737806007266045,-0.011352547444403172,0.9676520824432373,0.2514039874076843,-0.26953133940696716,-0.30468761920928955,9.652347564697266,0.0,0.0,0.0
294286852,-0.018737806007266045,-0.011352547444403172,0.9676520824432373,0.2514039874076843,-0.26953133940696716,-0.30468761920928955,9.652347564697266,0.0,0.0,0.0
294292124,-0.018737806007266045,-0.011352547444403172,0.9676520824432373,0.2514039874076843,-0.30468761920928955,-0.26953133940696716,9.652347564697266,0.0,0.0,0.0
294297500,-0.018737806007266045,-0.011291512288153172,0.9676520824432373,0.2514039874076843,-0.30468761920928955,-0.26953133940696716,9.652347564697266,0.0,0.0,0.0
294303532,-0.018737806007266045,-0.011291512288153172,0.9676520824432373,0.2514039874076843,-0.26953133940696716,-0.30468761920928955,9.652347564697266,0.0,0.0,0.0
294308788,-0.018737806007266045,-0.011291512288153172,0.9676520824432373,0.2514039874076843,-0.30468761920928955,-0.30468761920928955,9.648441314697266,0.0,0.0,0.0
294314180,-0.018737806007266045,-0.011291512288153172,0.9676520824432373,0.2514039874076843,-0.30468761920928955,-0.26953133940696716,9.652347564697266,0.0,0.0,0.0
294318848,-0.018737806007266045,-0.011291512288153172,0.9676520824432373,0.2514039874076843,-0.30468761920928955,-0.30468761920928955,9.648441314697266,0.0,0.0,0.0
294323188,-0.018737806007266045,-0.011291512288153172,0.9676520824432373,0.2514039874076843,-0.30468761920928955,-0.30468761920928955,9.648441314697266,0.0,0.0,0.0
294328284,-0.018737806007266045,-0.011291512288153172,0.9676520824432373,0.2514039874076843,-0.30468761920928955,-0.30468761920928955,9.648441314697266,0.0,0.0,0.0
294333668,-0.018737806007266045,-0.011291512288153172,0.9676520824432373,0.2514039874076843,-0.30468761920928955,-0.30468761920928955,9.648441314697266,0.0,0.0,0.0
294338328,-0.018737806007266045,-0.011291512288153172,0.9676520824432373,0.2514039874076843,-0.30468761920928955,-0.26953133940696716,9.726566314697266,0.0,0.0,0.0
294343720,-0.018737806007266045,-0.011291512288153172,0.9676520824432373,0.2514039874076843,-0.30468761920928955,-0.26953133940696716,9.652347564697266,0.0,0.0,0.0
294349408,-0.018737806007266045,-0.011291512288153172,0.9676520824432373,0.2514039874076843,-0.30468761920928955,-0.30468761920928955,9.648441314697266,0.0,0.0,0.0
294355176,-0.018737806007266045,-0.011291512288153172,0.9676520824432373,0.2514039874076843,-0.30468761920928955,-0.30468761920928955,9.648441314697266,0.0,0.0,0.0
294359484,-0.018737806007266045,-0.011291512288153172,0.9676520824432373,0.2514039874076843,-0.34375011920928955,-0.34375011920928955,9.609378814697266,0.0,0.0,0.0
294364892,-0.018737806007266045,-0.011291512288153172,0.9676520824432373,0.2514039874076843,-0.34375011920928955,-0.34375011920928955,9.609378814697266,0.0,0.0,0.0
294369564,-0.018737806007266045,-0.011291512288153172,0.9676520824432373,0.2514039874076843,-0.30468761920928955,-0.30468761920928955,9.582035064697266,0.0,0.0,0.0
294375016,-0.018737806007266045,-0.011291512288153172,0.9676520824432373,0.2514039874076843,-0.30468761920928955,-0.30468761920928955,9.582035064697266,0.0,0.0,0.0
294380272,-0.018737806007266045,-0.011291512288153172,0.9676520824432373,0.2514039874076843,-0.30468761920928955,-0.30468761920928955,9.648441314697266,0.0,0.0,0.0
294385320,-0.018737806007266045,-0.011230477131903172,0.9676520824432373,0.2514039874076843,-0.30468761920928955,-0.30468761920928955,9.648441314697266,0.0,0.0,0.0
294391688,-0.018737806007266045,-0.011230477131903172,0.9676520824432373,0.2514039874076843,-0.30468761920928955,-0.30468761920928955,9.648441314697266,0.0,0.0,0.0
294396356,-0.018737806007266045,-0.011230477131903172,0.9676520824432373,0.2514039874076843,-0.30468761920928955,-0.30468761920928955,9.609378814697266,0.0,0.0,0.0
294402184,-0.018737806007266045,-0.011230477131903172,0.9676520824432373,0.2514039874076843,-0.34375011920928955,-0.30468761920928955,9.652347564697266,0.0,0.0,0.0
294407532,-0.018737806007266045,-0.011230477131903172,0.9676520824432373,0.2514039874076843,-0.30468761920928955,-0.30468761920928955,9.648441314697266,0.0,0.0,0.0
294412948,-0.018737806007266045,-0.011230477131903172,0.9676520824432373,0.2514039874076843,-0.30468761920928955,-0.30468761920928955,9.609378814697266,0.0,0.0,0.0
294417632,-0.018737806007266045,-0.011230477131903172,0.9676520824432373,0.2514039874076843,-0.34375011920928955,-0.30468761920928955,9.613285064697266,0.0,0.0,0.0
294423220,-0.018737806007266045,-0.011230477131903172,0.9676520824432373,0.2514039874076843,-0.34375011920928955,-0.30468761920928955,9.613285064697266,0.0,0.0,0.0
294428836,-0.018737806007266045,-0.011230477131903172,0.9676520824432373,0.2514039874076843,-0.26953133940696716,-0.34375011920928955,9.691410064697266,0.0,0.0,0.0
294434216,-0.018737806007266045,-0.011230477131903172,0.9676520824432373,0.2514039874076843,-0.26953133940696716,-0.34375011920928955,9.691410064697266,0.0,0.0,0.0
294438880,-0.018737806007266045,-0.011230477131903172,0.9676520824432373,0.2514039874076843,-0.26953133940696716,-0.30468761920928955,9.652347564697266,0.0,0.0,0.0
294445028,-0.018737806007266045,-0.011230477131903172,0.9676520824432373,0.2514039874076843,-0.26953133940696716,-0.30468761920928955,9.652347564697266,0.0,0.0,0.0
294449692,-0.018737806007266045,-0.011230477131903172,0.9676520824432373,0.2514039874076843,-0.30468761920928955,-0.30468761920928955,9.609378814697266,0.0,0.0,0.0
294455096,-0.018737806007266045,-0.011230477131903172,0.9676520824432373,0.2514039874076843,-0.30468761920928955,-0.30468761920928955,9.609378814697266,0.0,0.0,0.0
294461108,-0.018737806007266045,-0.011230477131903172,0.9676520824432373,0.2514039874076843,-0.26953133940696716,-0.30468761920928955,9.652347564697266,0.0,0.0,0.0
294465776,-0.018737806007266045,-0.011230477131903172,0.9676520824432373,0.2514039874076843,-0.30468761920928955,-0.30468761920928955,9.691410064697266,0.0,0.0,0.0
294471168,-0.018737806007266045,-0.011230477131903172,0.9676520824432373,0.2514039874076843,-0.30468761920928955,-0.30468761920928955,9.691410064697266,0.0,0.0,0.0
294475540,-0.018737806007266045,-0.011230477131903172,0.9676520824432373,0.2514039874076843,-0.30468761920928955,-0.26953133940696716,9.687503814697266,0.0,0.0,0.0
294481364,-0.018737806007266045,-0.011230477131903172,0.9676520824432373,0.2514039874076843,-0.30468761920928955,-0.30468761920928955,9.648441314697266,0.0,0.0,0.0
294486980,-0.018737806007266045,-0.011230477131903172,0.9676520824432373,0.2514039874076843,-0.26953133940696716,-0.30468761920928955,9.652347564697266,0.0,0.0,0.0
294492408,-0.018737806007266045,-0.011230477131903172,0.9676520824432373,0.2514039874076843,-0.26953133940696716,-0.30468761920928955,9.652347564697266,0.0,0.0,0.0
294497080,-0.018737806007266045,-0.011230477131903172,0.9676520824432373,0.2514039874076843,-0.26953133940696716,-0.30468761920928955,9.613285064697266,0.0,0.0,0.0
294502156,-0.018737806007266045,-0.011230477131903172,0.9676520824432373,0.2514039874076843,-0.26953133940696716,-0.30468761920928955,9.613285064697266,0.0,0.0,0.0
294506868,-0.018737806007266045,-0.011230477131903172,0.9676520824432373,0.2514039874076843,-0.30468761920928955,-0.30468761920928955,9.648441314697266,0.0,0.0,0.0
294512276,-0.018737806007266045,-0.011230477131903172,0.9676520824432373,0.2514039874076843,-0.30468761920928955,-0.34375011920928955,9.652347564697266,0.0,0.0,0.0
294516948,-0.018737806007266045,-0.011230477131903172,0.9676520824432373,0.2514039874076843,-0.30468761920928955,-0.30468761920928955,9.648441314697266,0.0,0.0,0.0
294522084,-0.018737806007266045,-0.011230477131903172,0.9676520824432373,0.2514039874076843,-0.30468761920928955,-0.30468761920928955,9.648441314697266,0.0,0.0,0.0
294527692,-0.018737806007266045,-0.011230477131903172,0.9676520824432373,0.2514039874076843,-0.34375011920928955,-0.30468761920928955,9.652347564697266,0.0,0.0,0.0
294533528,-0.018737806007266045,-0.011230477131903172,0.9676520824432373,0.2514039874076843,-0.34375011920928955,-0.30468761920928955,9.652347564697266,0.0,0.0,0.0
294538548,-0.018737806007266045,-0.011230477131903172,0.9676520824432373,0.2514039874076843,-0.30468761920928955,-0.30468761920928955,9.648441314697266,0.0,0.0,0.0
294544016,-0.018737806007266045,-0.011230477131903172,0.9676520824432373,0.2514039874076843,-0.30468761920928955,-0.30468761920928955,9.648441314697266,0.0,0.0,0.0
294550316,-0.018737806007266045,-0.011230477131903172,0.9676520824432373,0.2514039874076843,-0.30468761920928955,-0.30468761920928955,9.648441314697266,0.0,0.0,0.0
294555360,-0.018798841163516045,-0.011230477131903172,0.9676520824432373,0.2514039874076843,-0.30468761920928955,-0.30468761920928955,9.648441314697266,0.0,0.0,0.0
294561032,-0.018798841163516045,-0.011230477131903172,0.9676520824432373,0.2514039874076843,-0.30468761920928955,-0.30468761920928955,9.648441314697266,0.0,0.0,0.0
294566264,-0.018798841163516045,-0.011230477131903172,0.9676520824432373,0.2514039874076843,-0.26953133940696716,-0.30468761920928955,9.613285064697266,0.0,0.0,0.0
294571372,-0.018798841163516045,-0.011230477131903172,0.9676520824432373,0.2514039874076843,-0.26953133940696716,-0.30468761920928955,9.613285064697266,0.0,0.0,0.0
294576064,-0.018798841163516045,-0.011230477131903172,0.9676520824432373,0.2514039874076843,-0.26953133940696716,-0.30468761920928955,9.613285064697266,0.0,0.0,0.0
294581224,-0.018798841163516045,-0.011230477131903172,0.9676520824432373,0.2514039874076843,-0.26953133940696716,-0.30468761920928955,9.613285064697266,0.0,0.0,0.0
294586492,-0.018798841163516045,-0.011230477131903172,0.9676520824432373,0.2514039874076843,-0.30468761920928955,-0.26953133940696716,9.652347564697266,0.0,0.0,0.0
294592264,-0.018798841163516045,-0.011230477131903172,0.9676520824432373,0.2514039874076843,-0.34375011920928955,-0.30468761920928955,9.687503814697266,0.0,0.0,0.0
294597516,-0.018798841163516045,-0.011230477131903172,0.9676520824432373,0.2514039874076843,-0.26953133940696716,-0.30468761920928955,9.613285064697266,0.0,0.0,0.0
294602908,-0.018798841163516045,-0.011230477131903172,0.9676520824432373,0.2514039874076843,-0.26953133940696716,-0.30468761920928955,9.613285064697266,0.0,0.0,0.0
294607576,-0.018798841163516045,-0.011230477131903172,0.9676520824432373,0.2514039874076843,-0.30468761920928955,-0.30468761920928955,9.648441314697266,0.0,0.0,0.0
294613012,-0.018798841163516045,-0.011230477131903172,0.9676520824432373,0.2514039874076843,-0.30468761920928955,-0.30468761920928955,9.648441314697266,0.0,0.0,0.0
294618268,-0.018798841163516045,-0.011230477131903172,0.9676520824432373,0.2514039874076843,-0.26953133940696716,-0.30468761920928955,9.687503814697266,0.0,0.0,0.0
294624020,-0.018798841163516045,-0.011230477131903172,0.9676520824432373,0.2514039874076843,-0.26953133940696716,-0.30468761920928955,9.687503814697266,0.0,0.0,0.0
294629548,-0.018798841163516045,-0.011230477131903172,0.9676520824432373,0.2514039874076843,-0.30468761920928955,-0.30468761920928955,9.691410064697266,0.0,0.0,0.0
294633880,-0.018798841163516045,-0.011230477131903172,0.9676520824432373,0.2514039874076843,-0.30468761920928955,-0.30468761920928955,9.648441314697266,0.0,0.0,0.0
294639340,-0.018798841163516045,-0.011230477131903172,0.9676520824432373,0.2514039874076843,-0.30468761920928955,-0.30468761920928955,9.691410064697266,0.0,0.0,0.0
294644128,-0.018798841163516045,-0.011230477131903172,0.9676520824432373,0.2514039874076843,-0.26953133940696716,-0.30468761920928955,9.652347564697266,0.0,0.0,0.0
294649612,-0.018798841163516045,-0.011230477131903172,0.9676520824432373,0.2514039874076843,-0.30468761920928955,-0.30468761920928955,9.691410064697266,0.0,0.0,0.0
294654292,-0.018798841163516045,-0.011230477131903172,0.9676520824432373,0.2514039874076843,-0.30468761920928955,-0.26953133940696716,9.613285064697266,0.0,0.0,0.0
294660180,-0.018798841163516045,-0.011230477131903172,0.9676520824432373,0.2514039874076843,-0.30468761920928955,-0.30468761920928955,9.609378814697266,0.0,0.0,0.0
294665560,-0.018798841163516045,-0.011230477131903172,0.9676520824432373,0.2514039874076843,-0.30468761920928955,-0.30468761920928955,9.730472564697266,0.0,0.0,0.0
294671312,-0.018798841163516045,-0.011230477131903172,0.9676520824432373,0.2514039874076843,-0.30468761920928955,-0.30468761920928955,9.730472564697266,0.0,0.0,0.0
294676032,-0.018798841163516045,-0.011230477131903172,0.9676520824432373,0.2514039874076843,-0.30468761920928955,-0.30468761920928955,9.609378814697266,0.0,0.0,0.0
294681572,-0.018798841163516045,-0.011230477131903172,0.9676520824432373,0.2514039874076843,-0.30468761920928955,-0.30468761920928955,9.609378814697266,0.0,0.0,0.0
294686240,-0.018798841163516045,-0.011230477131903172,0.9676520824432373,0.2514039874076843,-0.30468761920928955,-0.30468761920928955,9.691410064697266,0.0,0.0,0.0
294691996,-0.018798841163516045,-0.011230477131903172,0.9676520824432373,0.2514039874076843,-0.30468761920928955,-0.30468761920928955,9.691410064697266,0.0,0.0,0.0
294696648,-0.018798841163516045,-0.011230477131903172,0.9676520824432373,0.2514039874076843,-0.30468761920928955,-0.23046883940696716,9.648441314697266,0.0,0.0,0.0
294702412,-0.018798841163516045,-0.011230477131903172,0.9676520824432373,0.2514039874076843,-0.30468761920928955,-0.23046883940696716,9.648441314697266,0.0,0.0,0.0
294707748,-0.018798841163516045,-0.011230477131903172,0.9676520824432373,0.2514039874076843,-0.26953133940696716,-0.30468761920928955,9.687503814697266,0.0,0.0,0.0
294712784,-0.018859876319766045,-0.011230477131903172,0.9676520824432373,0.2514039874076843,-0.26953133940696716,-0.30468761920928955,9.687503814697266,0.0,0.0,0.0
294718676,-0.018859876319766045,-0.011230477131903172,0.9676520824432373,0.2514039874076843,-0.30468761920928955,-0.30468761920928955,9.648441314697266,0.0,0.0,0.0
294723916,-0.018859876319766045,-0.011230477131903172,0.9676520824432373,0.2514039874076843,-0.26953133940696716,-0.34375011920928955,9.691410064697266,0.0,0.0,0.0
294729660,-0.018859876319766045,-0.011230477131903172,0.9676520824432373,0.2514039874076843,-0.30468761920928955,-0.30468761920928955,9.609378814697266,0.0,0.0,0.0
294734324,-0.018859876319766045,-0.011230477131903172,0.9676520824432373,0.2514039874076843,-0.26953133940696716,-0.26953133940696716,9.648441314697266,0.0,0.0,0.0
294739432,-0.018859876319766045,-0.011230477131903172,0.9676520824432373,0.2514039874076843,-0.26953133940696716,-0.26953133940696716,9.648441314697266,0.0,0.0,0.0
294744708,-0.018859876319766045,-0.011230477131903172,0.9676520824432373,0.2514039874076843,-0.30468761920928955,-0.26953133940696716,9.613285064697266,0.0,0.0,0.0
294750088,-0.018859876319766045,-0.011230477131903172,0.9676520824432373,0.2514039874076843,-0.30468761920928955,-0.26953133940696716,9.613285064697266,0.0,0.0,0.0
294754804,-0.018859876319766045,-0.011230477131903172,0.9676520824432373,0.2514039874076843,-0.26953133940696716,-0.30468761920928955,9.652347564697266,0.0,0.0,0.0
294760888,-0.018859876319766045,-0.011230477131903172,0.9676520824432373,0.2514039874076843,-0.26953133940696716,-0.30468761920928955,9.652347564697266,0.0,0.0,0.0
294765720,-0.018859876319766045,-0.011230477131903172,0.9676520824432373,0.2514039874076843,-0.26953133940696716,-0.30468761920928955,9.613285064697266,0.0,0.0,0.0
294771484,-0.018859876319766045,-0.011230477131903172,0.9676520824432373,0.2514039874076843,-0.26953133940696716,-0.30468761920928955,9.613285064697266,0.0,0.0,0.0
294775788,-0.018859876319766045,-0.011230477131903172,0.9676520824432373,0.2514039874076843,-0.30468761920928955,-0.26953133940696716,9.613285064697266,0.0,0.0,0.0
294781260,-0.018859876319766045,-0.011230477131903172,0.9676520824432373,0.2514039874076843,-0.30468761920928955,-0.26953133940696716,9.613285064697266,0.0,0.0,0.0
294785988,-0.018859876319766045,-0.011230477131903172,0.9676520824432373,0.2514039874076843,-0.30468761920928955,-0.30468761920928955,9.609378814697266,0.0,0.0,0.0
294791440,-0.018859876319766045,-0.011230477131903172,0.9676520824432373,0.2514039874076843,-0.30468761920928955,-0.30468761920928955,9.609378814697266,0.0,0.0,0.0
294797548,-0.018859876319766045,-0.011230477131903172,0.9676520824432373,0.2514039874076843,-0.26953133940696716,-0.30468761920928955,9.613285064697266,0.0,0.0,0.0
294802964,-0.018859876319766045,-0.011230477131903172,0.9676520824432373,0.2514039874076843,-0.30468761920928955,-0.30468761920928955,9.691410064697266,0.0,0.0,0.0
294808720,-0.018859876319766045,-0.011230477131903172,0.9676520824432373,0.2514039874076843,-0.30468761920928955,-0.30468761920928955,9.648441314697266,0.0,0.0,0.0
294813376,-0.018859876319766045,-0.011230477131903172,0.9676520824432373,0.2514039874076843,-0.30468761920928955,-0.26953133940696716,9.652347564697266,0.0,0.0,0.0
294818624,-0.018859876319766045,-0.011230477131903172,0.9676520824432373,0.2514039874076843,-0.30468761920928955,-0.26953133940696716,9.652347564697266,0.0,0.0,0.0
294823296,-0.018859876319766045,-0.011230477131903172,0.9676520824432373,0.2514039874076843,-0.30468761920928955,-0.30468761920928955,9.648441314697266,0.0,0.0,0.0
294828444,-0.018859876319766045,-0.011230477131903172,0.9676520824432373,0.2514039874076843,-0.30468761920928955,-0.30468761920928955,9.648441314697266,0.0,0.0,0.0
294833120,-0.018859876319766045,-0.011230477131903172,0.9676520824432373,0.2514039874076843,-0.26953133940696716,-0.30468761920928955,9.652347564697266,0.0,0.0,0.0
294838176,-0.018859876319766045,-0.011230477131903172,0.9676520824432373,0.2514039874076843,-0.26953133940696716,-0.30468761920928955,9.652347564697266,0.0,0.0,0.0
294843456,-0.018859876319766045,-0.011230477131903172,0.9676520824432373,0.2514039874076843,-0.34375011920928955,-0.30468761920928955,9.652347564697266,0.0,0.0,0.0
294848456,-0.018859876319766045,-0.011230477131903172,0.9676520824432373,0.2514039874076843,-0.34375011920928955,-0.30468761920928955,9.652347564697266,0.0,0.0,0.0
294853696,-0.018859876319766045,-0.011230477131903172,0.9676520824432373,0.2514039874076843,-0.30468761920928955,-0.30468761920928955,9.648441314697266,0.0,0.0,0.0
294859704,-0.018859876319766045,-0.011230477131903172,0.9676520824432373,0.2514039874076843,-0.30468761920928955,-0.30468761920928955,9.648441314697266,0.0,0.0,0.0
294864484,-0.018859876319766045,-0.011230477131903172,0.9676520824432373,0.2514039874076843,-0.30468761920928955,-0.30468761920928955,9.648441314697266,0.0,0.0,0.0
294869888,-0.018859876319766045,-0.011230477131903172,0.9676520824432373,0.2514039874076843,-0.30468761920928955,-0.30468761920928955,9.648441314697266,0.0,0.0,0.0
294875132,-0.018859876319766045,-0.011230477131903172,0.9676520824432373,0.2514039874076843,-0.30468761920928955,-0.26953133940696716,9.578128814697266,0.0,0.0,0.0
294880508,-0.018859876319766045,-0.011230477131903172,0.9676520824432373,0.2514039874076843,-0.30468761920928955,-0.26953133940696716,9.578128814697266,0.0,0.0,0.0
294885316,-0.018859876319766045,-0.011230477131903172,0.9676520824432373,0.2514039874076843,-0.26953133940696716,-0.26953133940696716,9.648441314697266,0.0,0.0,0.0
294890736,-0.018859876319766045,-0.011230477131903172,0.9676520824432373,0.2514039874076843,-0.26953133940696716,-0.26953133940696716,9.648441314697266,0.0,0.0,0.0
294896344,-0.018859876319766045,-0.011230477131903172,0.9676520824432373,0.2514039874076843,-0.30468761920928955,-0.30468761920928955,9.609378814697266,0.0,0.0,0.0
294901740,-0.018859876319766045,-0.011230477131903172,0.9676520824432373,0.2514039874076843,-0.23046883940696716,-0.30468761920928955,9.582035064697266,0.0,0.0,0.0
294907480,-0.018859876319766045,-0.011230477131903172,0.9676520824432373,0.2514039874076843,-0.30468761920928955,-0.30468761920928955,9.648441314697266,0.0,0.0,0.0
294912720,-0.018859876319766045,-0.011230477131903172,0.9676520824432373,0.2514039874076843,-0.26953133940696716,-0.26953133940696716,9.648441314697266,0.0,0.0,0.0
294917744,-0.018859876319766045,-0.011230477131903172,0.9676520824432373,0.2514039874076843,-0.26953133940696716,-0.26953133940696716,9.648441314697266,0.0,0.0,0.0
294922992,-0.018859876319766045,-0.011230477131903172,0.9676520824432373,0.2514039874076843,-0.30468761920928955,-0.30468761920928955,9.691410064697266,0.0,0.0,0.0
294928492,-0.018859876319766045,-0.011230477131903172,0.9676520824432373,0.2514039874076843,-0.30468761920928955,-0.30468761920928955,9.691410064697266,0.0,0.0,0.0
294933152,-0.018859876319766045,-0.011230477131903172,0.9676520824432373,0.2514039874076843,-0.30468761920928955,-0.30468761920928955,9.648441314697266,0.0,0.0,0.0
294938872,-0.018859876319766045,-0.011230477131903172,0.9676520824432373,0.2514039874076843,-0.30468761920928955,-0.30468761920928955,9.648441314697266,0.0,0.0,0.0
294943668,-0.018859876319766045,-0.011230477131903172,0.9676520824432373,0.2514039874076843,-0.34375011920928955,-0.34375011920928955,9.609378814697266,0.0,0.0,0.0
294949132,-0.018859876319766045,-0.011230477131903172,0.9676520824432373,0.2514039874076843,-0.34375011920928955,-0.34375011920928955,9.609378814697266,0.0,0.0,0.0
294954976,-0.018859876319766045,-0.011230477131903172,0.9676520824432373,0.2514039874076843,-0.26953133940696716,-0.30468761920928955,9.652347564697266,0.0,0.0,0.0
294960232,-0.018859876319766045,-0.011230477131903172,0.9676520824432373,0.2514039874076843,-0.30468761920928955,-0.30468761920928955,9.609378814697266,0.0,0.0,0.0
294965656,-0.018859876319766045,-0.011230477131903172,0.9676520824432373,0.2514039874076843,-0.30468761920928955,-0.30468761920928955,9.691410064697266,0.0,0.0,0.0
294970344,-0.018859876319766045,-0.011230477131903172,0.9676520824432373,0.2514039874076843,-0.30468761920928955,-0.30468761920928955,9.691410064697266,0.0,0.0,0.0
294975392,-0.018859876319766045,-0.011230477131903172,0.9676520824432373,0.2514039874076843,-0.30468761920928955,-0.30468761920928955,9.691410064697266,0.0,0.0,0.0
294980764,-0.018859876319766045,-0.011230477131903172,0.9676520824432373,0.2514039874076843,-0.30468761920928955,-0.26953133940696716,9.652347564697266,0.0,0.0,0.0
294986144,-0.018859876319766045,-0.011230477131903172,0.9676520824432373,0.2514039874076843,-0.26953133940696716,-0.30468761920928955,9.613285064697266,0.0,0.0,0.0
294991440,-0.018859876319766045,-0.011230477131903172,0.9676520824432373,0.2514039874076843,-0.34375011920928955,-0.30468761920928955,9.687503814697266,0.0,0.0,0.0
294997532,-0.018859876319766045,-0.011230477131903172,0.9676520824432373,0.2514039874076843,-0.30468761920928955,-0.30468761920928955,9.648441314697266,0.0,0.0,0.0
295002776,-0.018859876319766045,-0.011230477131903172,0.9676520824432373,0.2514039874076843,-0.30468761920928955,-0.30468761920928955,9.648441314697266,0.0,0.0,0.0
295008312,-0.018859876319766045,-0.011230477131903172,0.9676520824432373,0.2514039874076843,-0.30468761920928955,-0.30468761920928955,9.648441314697266,0.0,0.0,0.0
295014328,-0.018859876319766045,-0.011230477131903172,0.9676520824432373,0.2514039874076843,-0.30468761920928955,-0.30468761920928955,9.609378814697266,0.0,0.0,0.0
295019060,-0.018859876319766045,-0.011230477131903172,0.9676520824432373,0.2514039874076843,-0.30468761920928955,-0.30468761920928955,9.609378814697266,0.0,0.0,0.0
295024484,-0.018859876319766045,-0.011230477131903172,0.9676520824432373,0.2514039874076843,-0.30468761920928955,-0.30468761920928955,9.691410064697266,0.0,0.0,0.0
295028788,-0.018859876319766045,-0.011230477131903172,0.9676520824432373,0.2514039874076843,-0.30468761920928955,-0.30468761920928955,9.648441314697266,0.0,0.0,0.0
295034296,-0.018859876319766045,-0.011230477131903172,0.9676520824432373,0.2514039874076843,-0.26953133940696716,-0.30468761920928955,9.687503814697266,0.0,0.0,0.0
295038988,-0.018859876319766045,-0.011230477131903172,0.9676520824432373,0.2514039874076843,-0.30468761920928955,-0.30468761920928955,9.648441314697266,0.0,0.0,0.0
295044364,-0.018859876319766045,-0.011230477131903172,0.9676520824432373,0.2514039874076843,-0.30468761920928955,-0.26953133940696716,9.652347564697266,0.0,0.0,0.0
295049092,-0.018859876319766045,-0.011230477131903172,0.9676520824432373,0.2514039874076843,-0.30468761920928955,-0.30468761920928955,9.609378814697266,0.0,0.0,0.0
295054848,-0.018859876319766045,-0.011230477131903172,0.9676520824432373,0.2514039874076843,-0.30468761920928955,-0.30468761920928955,9.648441314697266,0.0,0.0,0.0
295060152,-0.018859876319766045,-0.011230477131903172,0.9676520824432373,0.2514039874076843,-0.30468761920928955,-0.26953133940696716,9.652347564697266,0.0,0.0,0.0
295064464,-0.018859876319766045,-0.011230477131903172,0.9676520824432373,0.2514039874076843,-0.30468761920928955,-0.30468761920928955,9.691410064697266,0.0,0.0,0.0
295069496,-0.018859876319766045,-0.011230477131903172,0.9676520824432373,0.2514039874076843,-0.30468761920928955,-0.30468761920928955,9.691410064697266,0.0,0.0,0.0
295074892,-0.018859876319766045,-0.011230477131903172,0.9676520824432373,0.2514039874076843,-0.30468761920928955,-0.30468761920928955,9.609378814697266,0.0,0.0,0.0
295080120,-0.018859876319766045,-0.011230477131903172,0.9676520824432373,0.2514039874076843,-0.30468761920928955,-0.30468761920928955,9.648441314697266,0.0,0.0,0.0
295085708,-0.018859876319766045,-0.011230477131903172,0.9676520824432373,0.2514039874076843,-0.30468761920928955,-0.30468761920928955,9.648441314697266,0.0,0.0,0.0
295090388,-0.018859876319766045,-0.011230477131903172,0.9676520824432373,0.2514039874076843,-0.26953133940696716,-0.26953133940696716,9.648441314697266,0.0,0.0,0.0
295095924,-0.018859876319766045,-0.011230477131903172,0.9676520824432373,0.2514039874076843,-0.26953133940696716,-0.26953133940696716,9.648441314697266,0.0,0.0,0.0
295101280,-0.018859876319766045,-0.011230477131903172,0.9676520824432373,0.2514039874076843,-0.26953133940696716,-0.30468761920928955,9.652347564697266,0.0,0.0,0.0
295106304,-0.018859876319766045,-0.011230477131903172,0.9676520824432373,0.2514039874076843,-0.26953133940696716,-0.30468761920928955,9.652347564697266,0.0,0.0,0.0
295111000,-0.018859876319766045,-0.011230477131903172,0.9676520824432373,0.2514039874076843,-0.30468761920928955,-0.30468761920928955,9.648441314697266,0.0,0.0,0.0
295116396,-0.018859876319766045,-0.011230477131903172,0.9676520824432373,0.2514039874076843,-0.30468761920928955,-0.30468761920928955,9.648441314697266,0.0,0.0,0.0
295121080,-0.018859876319766045,-0.011230477131903172,0.9676520824432373,0.2514039874076843,-0.26953133940696716,-0.30468761920928955,9.613285064697266,0.0,0.0,0.0
295126568,-0.018859876319766045,-0.011230477131903172,0.9676520824432373,0.2514039874076843,-0.26953133940696716,-0.30468761920928955,9.613285064697266,0.0,0.0,0.0
295131444,-0.018859876319766045,-0.011230477131903172,0.9676520824432373,0.2514039874076843,-0.30468761920928955,-0.30468761920928955,9.648441314697266,0.0,0.0,0.0
295137212,-0.018859876319766045,-0.011230477131903172,0.9676520824432373,0.2514039874076843,-0.30468761920928955,-0.30468761920928955,9.648441314697266,0.0,0.0,0.0
295141520,-0.018859876319766045,-0.011230477131903172,0.9676520824432373,0.2514039874076843,-0.26953133940696716,-0.30468761920928955,9.652347564697266,0.0,0.0,0.0
295146928,-0.018859876319766045,-0.011230477131903172,0.9676520824432373,0.2514039874076843,-0.26953133940696716,-0.30468761920928955,9.652347564697266,0.0,0.0,0.0
295152312,-0.018859876319766045,-0.011230477131903172,0.9676520824432373,0.2514039874076843,-0.26953133940696716,-0.34375011920928955,9.648441314697266,0.0,0.0,0.0
295157092,-0.018859876319766045,-0.011230477131903172,0.9676520824432373,0.2514039874076843,-0.30468761920928955,-0.34375011920928955,9.613285064697266,0.0,0.0,0.0
295161752,-0.018859876319766045,-0.011230477131903172,0.9676520824432373,0.2514039874076843,-0.26953133940696716,-0.26953133940696716,9.691410064697266,0.0,0.0,0.0
295167132,-0.018859876319766045,-0.011230477131903172,0.9676520824432373,0.2514039874076843,-0.26953133940696716,-0.26953133940696716,9.691410064697266,0.0,0.0,0.0
295173012,-0.018859876319766045,-0.011230477131903172,0.9676520824432373,0.2514039874076843,-0.26953133940696716,-0.30468761920928955,9.652347564697266,0.0,0.0,0.0
295178280,-0.018859876319766045,-0.011230477131903172,0.9676520824432373,0.2514039874076843,-0.26953133940696716,-0.30468761920928955,9.652347564697266,0.0,0.0,0.0
295183648,-0.018859876319766045,-0.011230477131903172,0.9676520824432373,0.2514039874076843,-0.26953133940696716,-0.30468761920928955,9.652347564697266,0.0,0.0,0.0
295188328,-0.018859876319766045,-0.011230477131903172,0.9676520824432373,0.2514039874076843,-0.30468761920928955,-0.30468761920928955,9.648441314697266,0.0,0.0,0.0
295193744,-0.018859876319766045,-0.011230477131903172,0.9676520824432373,0.2514039874076843,-0.26953133940696716,-0.30468761920928955,9.687503814697266,0.0,0.0,0.0
295199120,-0.018859876319766045,-0.011230477131903172,0.9676520824432373,0.2514039874076843,-0.30468761920928955,-0.26953133940696716,9.726566314697266,0.0,0.0,0.0
295204532,-0.018859876319766045,-0.011230477131903172,0.9676520824432373,0.2514039874076843,-0.30468761920928955,-0.26953133940696716,9.726566314697266,0.0,0.0,0.0
295209220,-0.018859876319766045,-0.011230477131903172,0.9676520824432373,0.2514039874076843,-0.26953133940696716,-0.26953133940696716,9.648441314697266,0.0,0.0,0.0
295214620,-0.018859876319766045,-0.011230477131903172,0.9676520824432373,0.2514039874076843,-0.26953133940696716,-0.26953133940696716,9.648441314697266,0.0,0.0,0.0
295219308,-0.018859876319766045,-0.011230477131903172,0.9676520824432373,0.2514039874076843,-0.26953133940696716,-0.23046883940696716,9.687503814697266,0.0,0.0,0.0
295225472,-0.018859876319766045,-0.011230477131903172,0.9676520824432373,0.2514039874076843,-0.26953133940696716,-0.23046883940696716,9.687503814697266,0.0,0.0,0.0
295230156,-0.018859876319766045,-0.011230477131903172,0.9676520824432373,0.2514039874076843,-0.30468761920928955,-0.30468761920928955,9.648441314697266,0.0,0.0,0.0
295235908,-0.018859876319766045,-0.011230477131903172,0.9676520824432373,0.2514039874076843,-0.30468761920928955,-0.30468761920928955,9.648441314697266,0.0,0.0,0.0
295241660,-0.018859876319766045,-0.011230477131903172,0.9676520824432373,0.2514039874076843,-0.30468761920928955,-0.30468761920928955,9.730472564697266,0.0,0.0,0.0
295246328,-0.018859876319766045,-0.011230477131903172,0.9676520824432373,0.2514039874076843,-0.26953133940696716,-0.30468761920928955,9.687503814697266,0.0,0.0,0.0
295251852,-0.018859876319766045,-0.011230477131903172,0.9676520824432373,0.2514039874076843,-0.30468761920928955,-0.30468761920928955,9.609378814697266,0.0,0.0,0.0
295257116,-0.018859876319766045,-0.011230477131903172,0.9676520824432373,0.2514039874076843,-0.30468761920928955,-0.30468761920928955,9.691410064697266,0.0,0.0,0.0
295262504,-0.018859876319766045,-0.011230477131903172,0.9676520824432373,0.2514039874076843,-0.30468761920928955,-0.23046883940696716,9.648441314697266,0.0,0.0,0.0
295267756,-0.018859876319766045,-0.011230477131903172,0.9676520824432373,0.2514039874076843,-0.30468761920928955,-0.30468761920928955,9.648441314697266,0.0,0.0,0.0
295273388,-0.018859876319766045,-0.011230477131903172,0.9676520824432373,0.2514039874076843,-0.26953133940696716,-0.30468761920928955,9.652347564697266,0.0,0.0,0.0
295279056,-0.018859876319766045,-0.011230477131903172,0.9676520824432373,0.2514039874076843,-0.30468761920928955,-0.26953133940696716,9.652347564697266,0.0,0.0,0.0
295285152,-0.018859876319766045,-0.011230477131903172,0.9676520824432373,0.2514039874076843,-0.30468761920928955,-0.26953133940696716,9.652347564697266,0.0,0.0,0.0
295289944,-0.018859876319766045,-0.011230477131903172,0.9676520824432373,0.2514039874076843,-0.30468761920928955,-0.26953133940696716,9.613285064697266,0.0,0.0,0.0
295295332,-0.018859876319766045,-0.011230477131903172,0.9676520824432373,0.2514039874076843,-0.30468761920928955,-0.26953133940696716,9.613285064697266,0.0,0.0,0.0
295300028,-0.018859876319766045,-0.011230477131903172,0.9676520824432373,0.2514039874076843,-0.30468761920928955,-0.30468761920928955,9.691410064697266,0.0,0.0,0.0
295305056,-0.018859876319766045,-0.011230477131903172,0.9676520824432373,0.2514039874076843,-0.30468761920928955,-0.30468761920928955,9.691410064697266,0.0,0.0,0.0
295310280,-0.018859876319766045,-0.011230477131903172,0.9676520824432373,0.2514039874076843,-0.30468761920928955,-0.30468761920928955,9.648441314697266,0.0,0.0,0.0
295315336,-0.018859876319766045,-0.011230477131903172,0.9676520824432373,0.2514039874076843,-0.30468761920928955,-0.30468761920928955,9.648441314697266,0.0,0.0,0.0
295320928,-0.018859876319766045,-0.011230477131903172,0.9676520824432373,0.2514039874076843,-0.30468761920928955,-0.30468761920928955,9.609378814697266,0.0,0.0,0.0
295325596,-0.018859876319766045,-0.011230477131903172,0.9676520824432373,0.2514039874076843,-0.30468761920928955,-0.26953133940696716,9.687503814697266,0.0,0.0,0.0
295331020,-0.018859876319766045,-0.011230477131903172,0.9676520824432373,0.2514039874076843,-0.30468761920928955,-0.30468761920928955,9.582035064697266,0.0,0.0,0.0
295336292,-0.018859876319766045,-0.011230477131903172,0.9676520824432373,0.2514039874076843,-0.26953133940696716,-0.26953133940696716,9.691410064697266,0.0,0.0,0.0
295341692,-0.018859876319766045,-0.011230477131903172,0.9676520824432373,0.2514039874076843,-0.26953133940696716,-0.30468761920928955,9.613285064697266,0.0,0.0,0.0
295346364,-0.018859876319766045,-0.011230477131903172,0.9676520824432373,0.2514039874076843,-0.30468761920928955,-0.26953133940696716,9.652347564697266,0.0,0.0,0.0
295351768,-0.018859876319766045,-0.011230477131903172,0.9676520824432373,0.2514039874076843,-0.30468761920928955,-0.30468761920928955,9.609378814697266,0.0,0.0,0.0
295356468,-0.018859876319766045,-0.011230477131903172,0.9676520824432373,0.2514039874076843,-0.30468761920928955,-0.26953133940696716,9.652347564697266,0.0,0.0,0.0
295361892,-0.018859876319766045,-0.011230477131903172,0.9676520824432373,0.2514039874076843,-0.30468761920928955,-0.26953133940696716,9.578128814697266,0.0,0.0,0.0
295367496,-0.018859876319766045,-0.011230477131903172,0.9676520824432373,0.2514039874076843,-0.30468761920928955,-0.30468761920928955,9.648441314697266,0.0,0.0,0.0
295373968,-0.018859876319766045,-0.011230477131903172,0.9676520824432373,0.2514039874076843,-0.30468761920928955,-0.30468761920928955,9.648441314697266,0.0,0.0,0.0
295378640,-0.018859876319766045,-0.011230477131903172,0.9676520824432373,0.2514039874076843,-0.26953133940696716,-0.30468761920928955,9.687503814697266,0.0,0.0,0.0
295384072,-0.018859876319766045,-0.011230477131903172,0.9676520824432373,0.2514039874076843,-0.26953133940696716,-0.30468761920928955,9.687503814697266,0.0,0.0,0.0
295390104,-0.018859876319766045,-0.011230477131903172,0.9676520824432373,0.2514039874076843,-0.26953133940696716,-0.34375011920928955,9.609378814697266,0.0,0.0,0.0
295394768,-0.018859876319766045,-0.011230477131903172,0.9676520824432373,0.2514039874076843,-0.34375011920928955,-0.30468761920928955,9.687503814697266,0.0,0.0,0.0
295400176,-0.018859876319766045,-0.011230477131903172,0.9676520824432373,0.2514039874076843,-0.34375011920928955,-0.26953133940696716,9.582035064697266,0.0,0.0,0.0
295404864,-0.018859876319766045,-0.011230477131903172,0.9676520824432373,0.2514039874076843,-0.30468761920928955,-0.26953133940696716,9.652347564697266,0.0,0.0,0.0
295410956,-0.018859876319766045,-0.011230477131903172,0.9676520824432373,0.2514039874076843,-0.30468761920928955,-0.26953133940696716,9.652347564697266,0.0,0.0,0.0
295416240,-0.018859876319766045,-0.011230477131903172,0.9676520824432373,0.2514039874076843,-0.30468761920928955,-0.34375011920928955,9.652347564697266,0.0,0.0,0.0
295421660,-0.018859876319766045,-0.011230477131903172,0.9676520824432373,0.2514039874076843,-0.30468761920928955,-0.34375011920928955,9.652347564697266,0.0,0.0,0.0
295426328,-0.018859876319766045,-0.011230477131903172,0.9676520824432373,0.2514039874076843,-0.34375011920928955,-0.30468761920928955,9.578128814697266,0.0,0.0,0.0
295431508,-0.018859876319766045,-0.011230477131903172,0.9676520824432373,0.2514039874076843,-0.34375011920928955,-0.30468761920928955,9.578128814697266,0.0,0.0,0.0
295436760,-0.018859876319766045,-0.011230477131903172,0.9676520824432373,0.2514039874076843,-0.34375011920928955,-0.30468761920928955,9.652347564697266,0.0,0.0,0.0
295441816,-0.018859876319766045,-0.011230477131903172,0.9676520824432373,0.2514039874076843,-0.34375011920928955,-0.30468761920928955,9.652347564697266,0.0,0.0,0.0
295446708,-0.018859876319766045,-0.011230477131903172,0.9676520824432373,0.2514039874076843,-0.34375011920928955,-0.26953133940696716,9.609378814697266,0.0,0.0,0.0
295451768,-0.018859876319766045,-0.011230477131903172,0.9676520824432373,0.2514039874076843,-0.34375011920928955,-0.26953133940696716,9.609378814697266,0.0,0.0,0.0
295457160,-0.018859876319766045,-0.011230477131903172,0.9676520824432373,0.2514039874076843,-0.30468761920928955,-0.26953133940696716,9.687503814697266,0.0,0.0,0.0
295463044,-0.018859876319766045,-0.011230477131903172,0.9676520824432373,0.2514039874076843,-0.30468761920928955,-0.26953133940696716,9.687503814697266,0.0,0.0,0.0
295467700,-0.018859876319766045,-0.011230477131903172,0.9676520824432373,0.2514039874076843,-0.34375011920928955,-0.30468761920928955,9.652347564697266,0.0,0.0,0.0
295473076,-0.018859876319766045,-0.011230477131903172,0.9676520824432373,0.2514039874076843,-0.34375011920928955,-0.30468761920928955,9.652347564697266,0.0,0.0,0.0
295478340,-0.018859876319766045,-0.011230477131903172,0.9676520824432373,0.2514039874076843,-0.26953133940696716,-0.30468761920928955,9.687503814697266,0.0,0.0,0.0
295483376,-0.018798841163516045,-0.011230477131903172,0.9676520824432373,0.2514039874076843,-0.26953133940696716,-0.30468761920928955,9.687503814697266,0.0,0.0,0.0
295488772,-0.018798841163516045,-0.011230477131903172,0.9676520824432373,0.2514039874076843,-0.30468761920928955,-0.34375011920928955,9.652347564697266,0.0,0.0,0.0
295494008,-0.018798841163516045,-0.011230477131903172,0.9676520824432373,0.2514039874076843,-0.34375011920928955,-0.26953133940696716,9.691410064697266,0.0,0.0,0.0
295499412,-0.018798841163516045,-0.011230477131903172,0.9676520824432373,0.2514039874076843,-0.26953133940696716,-0.34375011920928955,9.691410064697266,0.0,0.0,0.0
295504072,-0.018798841163516045,-0.011230477131903172,0.9676520824432373,0.2514039874076843,-0.30468761920928955,-0.26953133940696716,9.652347564697266,0.0,0.0,0.0
295509792,-0.018798841163516045,-0.011230477131903172,0.9676520824432373,0.2514039874076843,-0.26953133940696716,-0.30468761920928955,9.652347564697266,0.0,0.0,0.0
295515064,-0.018798841163516045,-0.011230477131903172,0.9676520824432373,0.2514039874076843,-0.30468761920928955,-0.34375011920928955,9.652347564697266,0.0,0.0,0.0
295520120,-0.018798841163516045,-0.011230477131903172,0.9676520824432373,0.2514039874076843,-0.30468761920928955,-0.34375011920928955,9.652347564697266,0.0,0.0,0.0
295524424,-0.018798841163516045,-0.011230477131903172,0.9676520824432373,0.2514039874076843,-0.30468761920928955,-0.30468761920928955,9.648441314697266,0.0,0.0,0.0
295529440,-0.018798841163516045,-0.011230477131903172,0.9676520824432373,0.2514039874076843,-0.30468761920928955,-0.30468761920928955,9.648441314697266,0.0,0.0,0.0
295534680,-0.018798841163516045,-0.011230477131903172,0.9676520824432373,0.2514039874076843,-0.34375011920928955,-0.30468761920928955,9.613285064697266,0.0,0.0,0.0
295540096,-0.018798841163516045,-0.011230477131903172,0.9676520824432373,0.2514039874076843,-0.30468761920928955,-0.26953133940696716,9.652347564697266,0.0,0.0,0.0
295545340,-0.018798841163516045,-0.011230477131903172,0.9676520824432373,0.2514039874076843,-0.30468761920928955,-0.30468761920928955,9.648441314697266,0.0,0.0,0.0
295550924,-0.018798841163516045,-0.011230477131903172,0.9676520824432373,0.2514039874076843,-0.30468761920928955,-0.30468761920928955,9.648441314697266,0.0,0.0,0.0
295556160,-0.018798841163516045,-0.011230477131903172,0.9676520824432373,0.2514039874076843,-0.30468761920928955,-0.30468761920928955,9.609378814697266,0.0,0.0,0.0
295561248,-0.018798841163516045,-0.011230477131903172,0.9676520824432373,0.2514039874076843,-0.30468761920928955,-0.30468761920928955,9.609378814697266,0.0,0.0,0.0
295565616,-0.018798841163516045,-0.011230477131903172,0.9676520824432373,0.2514039874076843,-0.30468761920928955,-0.26953133940696716,9.652347564697266,0.0,0.0,0.0
295571000,-0.018798841163516045,-0.011230477131903172,0.9676520824432373,0.2514039874076843,-0.30468761920928955,-0.26953133940696716,9.652347564697266,0.0,0.0,0.0
295575704,-0.018798841163516045,-0.011230477131903172,0.9676520824432373,0.2514039874076843,-0.30468761920928955,-0.34375011920928955,9.652347564697266,0.0,0.0,0.0
295581120,-0.018798841163516045,-0.011230477131903172,0.9676520824432373,0.2514039874076843,-0.30468761920928955,-0.34375011920928955,9.652347564697266,0.0,0.0,0.0
295585812,-0.018798841163516045,-0.011230477131903172,0.9676520824432373,0.2514039874076843,-0.30468761920928955,-0.26953133940696716,9.613285064697266,0.0,0.0,0.0
295591864,-0.018798841163516045,-0.011230477131903172,0.9676520824432373,0.2514039874076843,-0.30468761920928955,-0.26953133940696716,9.613285064697266,0.0,0.0,0.0
295596184,-0.018798841163516045,-0.011230477131903172,0.9676520824432373,0.2514039874076843,-0.34375011920928955,-0.30468761920928955,9.613285064697266,0.0,0.0,0.0
295601932,-0.018798841163516045,-0.011230477131903172,0.9676520824432373,0.2514039874076843,-0.34375011920928955,-0.30468761920928955,9.613285064697266,0.0,0.0,0.0
295608292,-0.018798841163516045,-0.011230477131903172,0.9676520824432373,0.2514039874076843,-0.30468761920928955,-0.34375011920928955,9.687503814697266,0.0,0.0,0.0
295613588,-0.018798841163516045,-0.011230477131903172,0.9676520824432373,0.2514039874076843,-0.30468761920928955,-0.30468761920928955,9.648441314697266,0.0,0.0,0.0
295618996,-0.018798841163516045,-0.011230477131903172,0.9676520824432373,0.2514039874076843,-0.26953133940696716,-0.30468761920928955,9.687503814697266,0.0,0.0,0.0
295624272,-0.018798841163516045,-0.011230477131903172,0.9676520824432373,0.2514039874076843,-0.23046883940696716,-0.30468761920928955,9.609378814697266,0.0,0.0,0.0
295629308,-0.018798841163516045,-0.011230477131903172,0.9676520824432373,0.2514039874076843,-0.23046883940696716,-0.30468761920928955,9.609378814697266,0.0,0.0,0.0
295634564,-0.018798841163516045,-0.011230477131903172,0.9676520824432373,0.2514039874076843,-0.30468761920928955,-0.30468761920928955,9.648441314697266,0.0,0.0,0.0
295640556,-0.018798841163516045,-0.011230477131903172,0.9676520824432373,0.2514039874076843,-0.30468761920928955,-0.30468761920928955,9.648441314697266,0.0,0.0,0.0
295645260,-0.018798841163516045,-0.011230477131903172,0.9676520824432373,0.2514039874076843,-0.34375011920928955,-0.26953133940696716,9.648441314697266,0.0,0.0,0.0
295650720,-0.018798841163516045,-0.011230477131903172,0.9676520824432373,0.2514039874076843,-0.34375011920928955,-0.26953133940696716,9.648441314697266,0.0,0.0,0.0
295656544,-0.018798841163516045,-0.011230477131903172,0.9676520824432373,0.2514039874076843,-0.30468761920928955,-0.34375011920928955,9.652347564697266,0.0,0.0,0.0
295660856,-0.018798841163516045,-0.011230477131903172,0.9676520824432373,0.2514039874076843,-0.30468761920928955,-0.30468761920928955,9.609378814697266,0.0,0.0,0.0
295666244,-0.018798841163516045,-0.011230477131903172,0.9676520824432373,0.2514039874076843,-0.26953133940696716,-0.30468761920928955,9.613285064697266,0.0,0.0,0.0
295670684,-0.018798841163516045,-0.011230477131903172,0.9676520824432373,0.2514039874076843,-0.26953133940696716,-0.30468761920928955,9.613285064697266,0.0,0.0,0.0
295675332,-0.018798841163516045,-0.011230477131903172,0.9676520824432373,0.2514039874076843,-0.30468761920928955,-0.30468761920928955,9.648441314697266,0.0,0.0,0.0
295680360,-0.018798841163516045,-0.011169441975653172,0.9676520824432373,0.2514039874076843,-0.30468761920928955,-0.30468761920928955,9.648441314697266,0.0,0.0,0.0
295685040,-0.018798841163516045,-0.011169441975653172,0.9676520824432373,0.2514039874076843,-0.30468761920928955,-0.30468761920928955,9.609378814697266,0.0,0.0,0.0
295690820,-0.018798841163516045,-0.011169441975653172,0.9676520824432373,0.2514039874076843,-0.30468761920928955,-0.30468761920928955,9.609378814697266,0.0,0.0,0.0
295697776,-0.018798841163516045,-0.011169441975653172,0.9676520824432373,0.2514039874076843,-0.30468761920928955,-0.34375011920928955,9.613285064697266,0.0,0.0,0.0
295702448,-0.018798841163516045,-0.011169441975653172,0.9676520824432373,0.2514039874076843,-0.30468761920928955,-0.30468761920928955,9.648441314697266,0.0,0.0,0.0
295708584,-0.018798841163516045,-0.011169441975653172,0.9676520824432373,0.2514039874076843,-0.30468761920928955,-0.30468761920928955,9.609378814697266,0.0,0.0,0.0
295713844,-0.018798841163516045,-0.011169441975653172,0.9676520824432373,0.2514039874076843,-0.26953133940696716,-0.30468761920928955,9.687503814697266,0.0,0.0,0.0
295718864,-0.018798841163516045,-0.011169441975653172,0.9676520824432373,0.2514039874076843,-0.26953133940696716,-0.30468761920928955,9.687503814697266,0.0,0.0,0.0
295724108,-0.018798841163516045,-0.011169441975653172,0.9676520824432373,0.2514039874076843,-0.30468761920928955,-0.30468761920928955,9.691410064697266,0.0,0.0,0.0
295729840,-0.018798841163516045,-0.011169441975653172,0.9676520824432373,0.2514039874076843,-0.30468761920928955,-0.30468761920928955,9.691410064697266,0.0,0.0,0.0
295735604,-0.018798841163516045,-0.011169441975653172,0.9676520824432373,0.2514039874076843,-0.26953133940696716,-0.30468761920928955,9.652347564697266,0.0,0.0,0.0
295740280,-0.018798841163516045,-0.011169441975653172,0.9676520824432373,0.2514039874076843,-0.34375011920928955,-0.30468761920928955,9.652347564697266,0.0,0.0,0.0
295745900,-0.018798841163516045,-0.011169441975653172,0.9676520824432373,0.2514039874076843,-0.23046883940696716,-0.30468761920928955,9.609378814697266,0.0,0.0,0.0
295751152,-0.018798841163516045,-0.011169441975653172,0.9676520824432373,0.2514039874076843,-0.26953133940696716,-0.30468761920928955,9.652347564697266,0.0,0.0,0.0
295756636,-0.018798841163516045,-0.011169441975653172,0.9676520824432373,0.2514039874076843,-0.26953133940696716,-0.26953133940696716,9.648441314697266,0.0,0.0,0.0
295761316,-0.018798841163516045,-0.011169441975653172,0.9676520824432373,0.2514039874076843,-0.26953133940696716,-0.30468761920928955,9.726566314697266,0.0,0.0,0.0
295766416,-0.018798841163516045,-0.011169441975653172,0.9676520824432373,0.2514039874076843,-0.26953133940696716,-0.30468761920928955,9.726566314697266,0.0,0.0,0.0
295771664,-0.018798841163516045,-0.011169441975653172,0.9676520824432373,0.2514039874076843,-0.26953133940696716,-0.30468761920928955,9.652347564697266,0.0,0.0,0.0
295776692,-0.018798841163516045,-0.011169441975653172,0.9676520824432373,0.2514039874076843,-0.26953133940696716,-0.30468761920928955,9.652347564697266,0.0,0.0,0.0
295782356,-0.018798841163516045,-0.011169441975653172,0.9676520824432373,0.2514039874076843,-0.30468761920928955,-0.30468761920928955,9.609378814697266,0.0,0.0,0.0
295788848,-0.018798841163516045,-0.011169441975653172,0.9676520824432373,0.2514039874076843,-0.30468761920928955,-0.30468761920928955,9.609378814697266,0.0,0.0,0.0
295793504,-0.018798841163516045,-0.011169441975653172,0.9676520824432373,0.2514039874076843,-0.26953133940696716,-0.30468761920928955,9.687503814697266,0.0,0.0,0.0
295798940,-0.018798841163516045,-0.011169441975653172,0.9676520824432373,0.2514039874076843,-0.26953133940696716,-0.30468761920928955,9.687503814697266,0.0,0.0,0.0
295804344,-0.018798841163516045,-0.011169441975653172,0.9676520824432373,0.2514039874076843,-0.26953133940696716,-0.30468761920928955,9.613285064697266,0.0,0.0,0.0
295809012,-0.018798841163516045,-0.011169441975653172,0.9676520824432373,0.2514039874076843,-0.30468761920928955,-0.30468761920928955,9.609378814697266,0.0,0.0,0.0
295813672,-0.018798841163516045,-0.011169441975653172,0.9676520824432373,0.2514039874076843,-0.30468761920928955,-0.30468761920928955,9.691410064697266,0.0,0.0,0.0
295818704,-0.018798841163516045,-0.011169441975653172,0.9676520824432373,0.2514039874076843,-0.30468761920928955,-0.30468761920928955,9.691410064697266,0.0,0.0,0.0
295824132,-0.018798841163516045,-0.011169441975653172,0.9676520824432373,0.2514039874076843,-0.34375011920928955,-0.26953133940696716,9.648441314697266,0.0,0.0,0.0
295829388,-0.018798841163516045,-0.011169441975653172,0.9676520824432373,0.2514039874076843,-0.30468761920928955,-0.26953133940696716,9.652347564697266,0.0,0.0,0.0
295835208,-0.018798841163516045,-0.011169441975653172,0.9676520824432373,0.2514039874076843,-0.30468761920928955,-0.34375011920928955,9.687503814697266,0.0,0.0,0.0
295839560,-0.018798841163516045,-0.011169441975653172,0.9676520824432373,0.2514039874076843,-0.30468761920928955,-0.30468761920928955,9.648441314697266,0.0,0.0,0.0
295845068,-0.018798841163516045,-0.011169441975653172,0.9676520824432373,0.2514039874076843,-0.30468761920928955,-0.30468761920928955,9.691410064697266,0.0,0.0,0.0
295849804,-0.018798841163516045,-0.011169441975653172,0.9676520824432373,0.2514039874076843,-0.26953133940696716,-0.26953133940696716,9.582035064697266,0.0,0.0,0.0
295855248,-0.018798841163516045,-0.011169441975653172,0.9676520824432373,0.2514039874076843,-0.30468761920928955,-0.34375011920928955,9.613285064697266,0.0,0.0,0.0
295859912,-0.018798841163516045,-0.011169441975653172,0.9676520824432373,0.2514039874076843,-0.30468761920928955,-0.26953133940696716,9.652347564697266,0.0,0.0,0.0
295865808,-0.018798841163516045,-0.011169441975653172,0.9676520824432373,0.2514039874076843,-0.30468761920928955,-0.26953133940696716,9.652347564697266,0.0,0.0,0.0
295871236,-0.018798841163516045,-0.011169441975653172,0.9676520824432373,0.2514039874076843,-0.30468761920928955,-0.30468761920928955,9.582035064697266,0.0,0.0,0.0
295876972,-0.018798841163516045,-0.011169441975653172,0.9676520824432373,0.2514039874076843,-0.30468761920928955,-0.30468761920928955,9.582035064697266,0.0,0.0,0.0
295881652,-0.018798841163516045,-0.011169441975653172,0.9676520824432373,0.2514039874076843,-0.30468761920928955,-0.30468761920928955,9.609378814697266,0.0,0.0,0.0
295887108,-0.018798841163516045,-0.011169441975653172,0.9676520824432373,0.2514039874076843,-0.30468761920928955,-0.30468761920928955,9.609378814697266,0.0,0.0,0.0
295891812,-0.018798841163516045,-0.011169441975653172,0.9676520824432373,0.2514039874076843,-0.26953133940696716,-0.30468761920928955,9.613285064697266,0.0,0.0,0.0
295897208,-0.018798841163516045,-0.011169441975653172,0.9676520824432373,0.2514039874076843,-0.26953133940696716,-0.30468761920928955,9.613285064697266,0.0,0.0,0.0
295901852,-0.018798841163516045,-0.011169441975653172,0.9676520824432373,0.2514039874076843,-0.26953133940696716,-0.34375011920928955,9.648441314697266,0.0,0.0,0.0
295907620,-0.018798841163516045,-0.011169441975653172,0.9676520824432373,0.2514039874076843,-0.26953133940696716,-0.34375011920928955,9.648441314697266,0.0,0.0,0.0
295912868,-0.018798841163516045,-0.011169441975653172,0.9676520824432373,0.2514039874076843,-0.30468761920928955,-0.30468761920928955,9.648441314697266,0.0,0.0,0.0
295918240,-0.018737806007266045,-0.011230477131903172,0.9676520824432373,0.2514039874076843,-0.30468761920928955,-0.30468761920928955,9.648441314697266,0.0,0.0,0.0
295924392,-0.018737806007266045,-0.011230477131903172,0.9676520824432373,0.2514039874076843,-0.30468761920928955,-0.30468761920928955,9.648441314697266,0.0,0.0,0.0
295929624,-0.018737806007266045,-0.011230477131903172,0.9676520824432373,0.2514039874076843,-0.30468761920928955,-0.26953133940696716,9.652347564697266,0.0,0.0,0.0
295934740,-0.018737806007266045,-0.011230477131903172,0.9676520824432373,0.2514039874076843,-0.30468761920928955,-0.26953133940696716,9.652347564697266,0.0,0.0,0.0
295939060,-0.018737806007266045,-0.011230477131903172,0.9676520824432373,0.2514039874076843,-0.34375011920928955,-0.23046883940696716,9.613285064697266,0.0,0.0,0.0
295944140,-0.018737806007266045,-0.011230477131903172,0.9676520824432373,0.2514039874076843,-0.34375011920928955,-0.23046883940696716,9.613285064697266,0.0,0.0,0.0
295949372,-0.018737806007266045,-0.011230477131903172,0.9676520824432373,0.2514039874076843,-0.26953133940696716,-0.30468761920928955,9.613285064697266,0.0,0.0,0.0
295955028,-0.018737806007266045,-0.011230477131903172,0.9676520824432373,0.2514039874076843,-0.26953133940696716,-0.30468761920928955,9.613285064697266,0.0,0.0,0.0
295960276,-0.018737806007266045,-0.011230477131903172,0.9676520824432373,0.2514039874076843,-0.30468761920928955,-0.26953133940696716,9.652347564697266,0.0,0.0,0.0
295965284,-0.018737806007266045,-0.011230477131903172,0.9676520824432373,0.2514039874076843,-0.30468761920928955,-0.26953133940696716,9.652347564697266,0.0,0.0,0.0
295970900,-0.018737806007266045,-0.011230477131903172,0.9676520824432373,0.2514039874076843,-0.26953133940696716,-0.30468761920928955,9.652347564697266,0.0,0.0,0.0
295976632,-0.018737806007266045,-0.011230477131903172,0.9676520824432373,0.2514039874076843,-0.26953133940696716,-0.30468761920928955,9.652347564697266,0.0,0.0,0.0
295981300,-0.018737806007266045,-0.011230477131903172,0.9676520824432373,0.2514039874076843,-0.30468761920928955,-0.26953133940696716,9.652347564697266,0.0,0.0,0.0
295986720,-0.018737806007266045,-0.011230477131903172,0.9676520824432373,0.2514039874076843,-0.30468761920928955,-0.26953133940696716,9.652347564697266,0.0,0.0,0.0
295991424,-0.018737806007266045,-0.011230477131903172,0.9676520824432373,0.2514039874076843,-0.30468761920928955,-0.30468761920928955,9.609378814697266,0.0,0.0,0.0
295996860,-0.018737806007266045,-0.011230477131903172,0.9676520824432373,0.2514039874076843,-0.30468761920928955,-0.30468761920928955,9.609378814697266,0.0,0.0,0.0
296002120,-0.018737806007266045,-0.011230477131903172,0.9676520824432373,0.2514039874076843,-0.26953133940696716,-0.34375011920928955,9.648441314697266,0.0,0.0,0.0
296007940,-0.018676770851016045,-0.011230477131903172,0.9676520824432373,0.2514039874076843,-0.26953133940696716,-0.34375011920928955,9.648441314697266,0.0,0.0,0.0
296013356,-0.018676770851016045,-0.011230477131903172,0.9676520824432373,0.2514039874076843,-0.34375011920928955,-0.30468761920928955,9.613285064697266,0.0,0.0,0.0
296018604,-0.018676770851016045,-0.011230477131903172,0.9676520824432373,0.2514039874076843,-0.30468761920928955,-0.30468761920928955,9.648441314697266,0.0,0.0,0.0
296024688,-0.018676770851016045,-0.011230477131903172,0.9676520824432373,0.2514039874076843,-0.30468761920928955,-0.30468761920928955,9.609378814697266,0.0,0.0,0.0
296030316,-0.018676770851016045,-0.011230477131903172,0.9676520824432373,0.2514039874076843,-0.26953133940696716,-0.30468761920928955,9.652347564697266,0.0,0.0,0.0
296035696,-0.018676770851016045,-0.011230477131903172,0.9676520824432373,0.2514039874076843,-0.26953133940696716,-0.30468761920928955,9.652347564697266,0.0,0.0,0.0
296040004,-0.018676770851016045,-0.011230477131903172,0.9676520824432373,0.2514039874076843,-0.26953133940696716,-0.30468761920928955,9.613285064697266,0.0,0.0,0.0
296045744,-0.018676770851016045,-0.011230477131903172,0.9676520824432373,0.2514039874076843,-0.26953133940696716,-0.30468761920928955,9.613285064697266,0.0,0.0,0.0
296050524,-0.018676770851016045,-0.011230477131903172,0.9676520824432373,0.2514039874076843,-0.26953133940696716,-0.34375011920928955,9.648441314697266,0.0,0.0,0.0
296056340,-0.018676770851016045,-0.011230477131903172,0.9676520824432373,0.2514039874076843,-0.26953133940696716,-0.34375011920928955,9.648441314697266,0.0,0.0,0.0
296060652,-0.018676770851016045,-0.011230477131903172,0.9676520824432373,0.2514039874076843,-0.34375011920928955,-0.30468761920928955,9.687503814697266,0.0,0.0,0.0
296065700,-0.018676770851016045,-0.011230477131903172,0.9676520824432373,0.2514039874076843,-0.34375011920928955,-0.30468761920928955,9.687503814697266,0.0,0.0,0.0
296070404,-0.018676770851016045,-0.011230477131903172,0.9676520824432373,0.2514039874076843,-0.30468761920928955,-0.30468761920928955,9.648441314697266,0.0,0.0,0.0
296075460,-0.018676770851016045,-0.011230477131903172,0.9676520824432373,0.2514039874076843,-0.30468761920928955,-0.30468761920928955,9.648441314697266,0.0,0.0,0.0
296080108,-0.018676770851016045,-0.011230477131903172,0.9676520824432373,0.2514039874076843,-0.30468761920928955,-0.30468761920928955,9.691410064697266,0.0,0.0,0.0
296085540,-0.018676770851016045,-0.011230477131903172,0.9676520824432373,0.2514039874076843,-0.30468761920928955,-0.30468761920928955,9.691410064697266,0.0,0.0,0.0
296090208,-0.018676770851016045,-0.011230477131903172,0.9676520824432373,0.2514039874076843,-0.30468761920928955,-0.30468761920928955,9.648441314697266,0.0,0.0,0.0
296095756,-0.018676770851016045,-0.011230477131903172,0.9676520824432373,0.2514039874076843,-0.30468761920928955,-0.30468761920928955,9.648441314697266,0.0,0.0,0.0
296102132,-0.018676770851016045,-0.011230477131903172,0.9676520824432373,0.2514039874076843,-0.30468761920928955,-0.26953133940696716,9.613285064697266,0.0,0.0,0.0
296107364,-0.018676770851016045,-0.011230477131903172,0.9676520824432373,0.2514039874076843,-0.30468761920928955,-0.30468761920928955,9.648441314697266,0.0,0.0,0.0
296113112,-0.018676770851016045,-0.011230477131903172,0.9676520824432373,0.2514039874076843,-0.26953133940696716,-0.34375011920928955,9.648441314697266,0.0,0.0,0.0
296117792,-0.018676770851016045,-0.011230477131903172,0.9676520824432373,0.2514039874076843,-0.30468761920928955,-0.30468761920928955,9.648441314697266,0.0,0.0,0.0
296122860,-0.018676770851016045,-0.011230477131903172,0.9676520824432373,0.2514039874076843,-0.30468761920928955,-0.30468761920928955,9.648441314697266,0.0,0.0,0.0
296128116,-0.018676770851016045,-0.011230477131903172,0.9676520824432373,0.2514039874076843,-0.26953133940696716,-0.30468761920928955,9.652347564697266,0.0,0.0,0.0
296133496,-0.018676770851016045,-0.011230477131903172,0.9676520824432373,0.2514039874076843,-0.26953133940696716,-0.30468761920928955,9.652347564697266,0.0,0.0,0.0
296138184,-0.018676770851016045,-0.011230477131903172,0.9676520824432373,0.2514039874076843,-0.30468761920928955,-0.30468761920928955,9.691410064697266,0.0,0.0,0.0
296143564,-0.018676770851016045,-0.011230477131903172,0.9676520824432373,0.2514039874076843,-0.30468761920928955,-0.30468761920928955,9.691410064697266,0.0,0.0,0.0
296148868,-0.018676770851016045,-0.011230477131903172,0.9676520824432373,0.2514039874076843,-0.26953133940696716,-0.30468761920928955,9.613285064697266,0.0,0.0,0.0
296155200,-0.018676770851016045,-0.011230477131903172,0.9676520824432373,0.2514039874076843,-0.26953133940696716,-0.30468761920928955,9.613285064697266,0.0,0.0,0.0
296159508,-0.018676770851016045,-0.011230477131903172,0.9676520824432373,0.2514039874076843,-0.30468761920928955,-0.30468761920928955,9.691410064697266,0.0,0.0,0.0
296164908,-0.018676770851016045,-0.011230477131903172,0.9676520824432373,0.2514039874076843,-0.30468761920928955,-0.30468761920928955,9.691410064697266,0.0,0.0,0.0
296169600,-0.018676770851016045,-0.011230477131903172,0.9676520824432373,0.2514039874076843,-0.30468761920928955,-0.30468761920928955,9.691410064697266,0.0,0.0,0.0
296175036,-0.018676770851016045,-0.011230477131903172,0.9676520824432373,0.2514039874076843,-0.30468761920928955,-0.30468761920928955,9.691410064697266,0.0,0.0,0.0
296179360,-0.018676770851016045,-0.011230477131903172,0.9676520824432373,0.2514039874076843,-0.30468761920928955,-0.30468761920928955,9.582035064697266,0.0,0.0,0.0
296184772,-0.018676770851016045,-0.011230477131903172,0.9676520824432373,0.2514039874076843,-0.30468761920928955,-0.30468761920928955,9.582035064697266,0.0,0.0,0.0
296191312,-0.018676770851016045,-0.011230477131903172,0.9676520824432373,0.2514039874076843,-0.26953133940696716,-0.34375011920928955,9.648441314697266,0.0,0.0,0.0
296195984,-0.018676770851016045,-0.011230477131903172,0.9676520824432373,0.2514039874076843,-0.30468761920928955,-0.34375011920928955,9.613285064697266,0.0,0.0,0.0
296201396,-0.018676770851016045,-0.011230477131903172,0.9676520824432373,0.2514039874076843,-0.34375011920928955,-0.30468761920928955,9.652347564697266,0.0,0.0,0.0
296207012,-0.018676770851016045,-0.011230477131903172,0.9676520824432373,0.2514039874076843,-0.30468761920928955,-0.30468761920928955,9.691410064697266,0.0,0.0,0.0
296212396,-0.018676770851016045,-0.011230477131903172,0.9676520824432373,0.2514039874076843,-0.30468761920928955,-0.30468761920928955,9.691410064697266,0.0,0.0,0.0
296217668,-0.018676770851016045,-0.011230477131903172,0.9676520824432373,0.2514039874076843,-0.30468761920928955,-0.30468761920928955,9.609378814697266,0.0,0.0,0.0
296223636,-0.018676770851016045,-0.011230477131903172,0.9676520824432373,0.2514039874076843,-0.30468761920928955,-0.30468761920928955,9.609378814697266,0.0,0.0,0.0
296228372,-0.018676770851016045,-0.011230477131903172,0.9676520824432373,0.2514039874076843,-0.30468761920928955,-0.30468761920928955,9.648441314697266,0.0,0.0,0.0
296233872,-0.018676770851016045,-0.011230477131903172,0.9676520824432373,0.2514039874076843,-0.30468761920928955,-0.30468761920928955,9.648441314697266,0.0,0.0,0.0
296239428,-0.018676770851016045,-0.011230477131903172,0.9676520824432373,0.2514039874076843,-0.30468761920928955,-0.26953133940696716,9.652347564697266,0.0,0.0,0.0
296244764,-0.018676770851016045,-0.011230477131903172,0.9676520824432373,0.2514039874076843,-0.30468761920928955,-0.26953133940696716,9.613285064697266,0.0,0.0,0.0
296250140,-0.018676770851016045,-0.011230477131903172,0.9676520824432373,0.2514039874076843,-0.26953133940696716,-0.30468761920928955,9.652347564697266,0.0,0.0,0.0
296254472,-0.018676770851016045,-0.011230477131903172,0.9676520824432373,0.2514039874076843,-0.26953133940696716,-0.26953133940696716,9.609378814697266,0.0,0.0,0.0
296259872,-0.018676770851016045,-0.011230477131903172,0.9676520824432373,0.2514039874076843,-0.30468761920928955,-0.30468761920928955,9.609378814697266,0.0,0.0,0.0
296265132,-0.018676770851016045,-0.011230477131903172,0.9676520824432373,0.2514039874076843,-0.26953133940696716,-0.30468761920928955,9.652347564697266,0.0,0.0,0.0
296270588,-0.018676770851016045,-0.011230477131903172,0.9676520824432373,0.2514039874076843,-0.30468761920928955,-0.26953133940696716,9.613285064697266,0.0,0.0,0.0
296275824,-0.018676770851016045,-0.011230477131903172,0.9676520824432373,0.2514039874076843,-0.34375011920928955,-0.30468761920928955,9.652347564697266,0.0,0.0,0.0
296281208,-0.018676770851016045,-0.011230477131903172,0.9676520824432373,0.2514039874076843,-0.26953133940696716,-0.26953133940696716,9.691410064697266,0.0,0.0,0.0
296286432,-0.018676770851016045,-0.011230477131903172,0.9676520824432373,0.2514039874076843,-0.30468761920928955,-0.30468761920928955,9.609378814697266,0.0,0.0,0.0
296292172,-0.018676770851016045,-0.011230477131903172,0.9676520824432373,0.2514039874076843,-0.30468761920928955,-0.30468761920928955,9.609378814697266,0.0,0.0,0.0
296297408,-0.018676770851016045,-0.011230477131903172,0.9676520824432373,0.2514039874076843,-0.30468761920928955,-0.30468761920928955,9.648441314697266,0.0,0.0,0.0
296303180,-0.018676770851016045,-0.011230477131903172,0.9676520824432373,0.2514039874076843,-0.30468761920928955,-0.30468761920928955,9.648441314697266,0.0,0.0,0.0
296309896,-0.018676770851016045,-0.011230477131903172,0.9676520824432373,0.2514039874076843,-0.34375011920928955,-0.30468761920928955,9.687503814697266,0.0,0.0,0.0
296314200,-0.018676770851016045,-0.011230477131903172,0.9676520824432373,0.2514039874076843,-0.34375011920928955,-0.30468761920928955,9.652347564697266,0.0,0.0,0.0
296318572,-0.018676770851016045,-0.011230477131903172,0.9676520824432373,0.2514039874076843,-0.34375011920928955,-0.30468761920928955,9.652347564697266,0.0,0.0,0.0
296323728,-0.018737806007266045,-0.011291512288153172,0.9676520824432373,0.2514039874076843,-0.34375011920928955,-0.30468761920928955,9.652347564697266,0.0,0.0,0.0
296329132,-0.018737806007266045,-0.011291512288153172,0.9676520824432373,0.2514039874076843,-0.30468761920928955,-0.30468761920928955,9.730472564697266,0.0,0.0,0.0
296333852,-0.018737806007266045,-0.011291512288153172,0.9676520824432373,0.2514039874076843,-0.30468761920928955,-0.30468761920928955,9.691410064697266,0.0,0.0,0.0
296339952,-0.018737806007266045,-0.011291512288153172,0.9676520824432373,0.2514039874076843,-0.30468761920928955,-0.26953133940696716,9.652347564697266,0.0,0.0,0.0
296345184,-0.018737806007266045,-0.011291512288153172,0.9676520824432373,0.2514039874076843,-0.30468761920928955,-0.30468761920928955,9.609378814697266,0.0,0.0,0.0
296350248,-0.018737806007266045,-0.011291512288153172,0.9676520824432373,0.2514039874076843,-0.30468761920928955,-0.30468761920928955,9.609378814697266,0.0,0.0,0.0
296354936,-0.018737806007266045,-0.011291512288153172,0.9676520824432373,0.2514039874076843,-0.30468761920928955,-0.30468761920928955,9.609378814697266,0.0,0.0,0.0
296360720,-0.018737806007266045,-0.011291512288153172,0.9676520824432373,0.2514039874076843,-0.30468761920928955,-0.30468761920928955,9.648441314697266,0.0,0.0,0.0
296365944,-0.018737806007266045,-0.011291512288153172,0.9676520824432373,0.2514039874076843,-0.34375011920928955,-0.26953133940696716,9.730472564697266,0.0,0.0,0.0
296371004,-0.018737806007266045,-0.011291512288153172,0.9676520824432373,0.2514039874076843,-0.34375011920928955,-0.26953133940696716,9.730472564697266,0.0,0.0,0.0
296376244,-0.018737806007266045,-0.011291512288153172,0.9676520824432373,0.2514039874076843,-0.30468761920928955,-0.30468761920928955,9.609378814697266,0.0,0.0,0.0
296381612,-0.018737806007266045,-0.011291512288153172,0.9676520824432373,0.2514039874076843,-0.30468761920928955,-0.30468761920928955,9.609378814697266,0.0,0.0,0.0
296386988,-0.018737806007266045,-0.011291512288153172,0.9676520824432373,0.2514039874076843,-0.26953133940696716,-0.26953133940696716,9.691410064697266,0.0,0.0,0.0
296392376,-0.018737806007266045,-0.011291512288153172,0.9676520824432373,0.2514039874076843,-0.26953133940696716,-0.26953133940696716,9.691410064697266,0.0,0.0,0.0
296398520,-0.018737806007266045,-0.011291512288153172,0.9676520824432373,0.2514039874076843,-0.30468761920928955,-0.34375011920928955,9.613285064697266,0.0,0.0,0.0
296403244,-0.018737806007266045,-0.011291512288153172,0.9676520824432373,0.2514039874076843,-0.30468761920928955,-0.30468761920928955,9.648441314697266,0.0,0.0,0.0
296408688,-0.018737806007266045,-0.011291512288153172,0.9676520824432373,0.2514039874076843,-0.30468761920928955,-0.30468761920928955,9.691410064697266,0.0,0.0,0.0
296413004,-0.018737806007266045,-0.011291512288153172,0.9676520824432373,0.2514039874076843,-0.34375011920928955,-0.30468761920928955,9.652347564697266,0.0,0.0,0.0
296418380,-0.018737806007266045,-0.011291512288153172,0.9676520824432373,0.2514039874076843,-0.26953133940696716,-0.30468761920928955,9.613285064697266,0.0,0.0,0.0
296423684,-0.018737806007266045,-0.011291512288153172,0.9676520824432373,0.2514039874076843,-0.26953133940696716,-0.30468761920928955,9.613285064697266,0.0,0.0,0.0
296428720,-0.018737806007266045,-0.011291512288153172,0.9676520824432373,0.2514039874076843,-0.26953133940696716,-0.30468761920928955,9.613285064697266,0.0,0.0,0.0
296433376,-0.018737806007266045,-0.011291512288153172,0.9676520824432373,0.2514039874076843,-0.26953133940696716,-0.30468761920928955,9.652347564697266,0.0,0.0,0.0
296438752,-0.018737806007266045,-0.011291512288153172,0.9676520824432373,0.2514039874076843,-0.30468761920928955,-0.34375011920928955,9.613285064697266,0.0,0.0,0.0
296443992,-0.018737806007266045,-0.011291512288153172,0.9676520824432373,0.2514039874076843,-0.30468761920928955,-0.26953133940696716,9.687503814697266,0.0,0.0,0.0
296449376,-0.018737806007266045,-0.011291512288153172,0.9676520824432373,0.2514039874076843,-0.26953133940696716,-0.30468761920928955,9.652347564697266,0.0,0.0,0.0
296454632,-0.018737806007266045,-0.011291512288153172,0.9676520824432373,0.2514039874076843,-0.30468761920928955,-0.30468761920928955,9.648441314697266,0.0,0.0,0.0
296459764,-0.018737806007266045,-0.011291512288153172,0.9676520824432373,0.2514039874076843,-0.30468761920928955,-0.30468761920928955,9.648441314697266,0.0,0.0,0.0
296465212,-0.018737806007266045,-0.011291512288153172,0.9676520824432373,0.2514039874076843,-0.30468761920928955,-0.30468761920928955,9.648441314697266,0.0,0.0,0.0
296470608,-0.018737806007266045,-0.011291512288153172,0.9676520824432373,0.2514039874076843,-0.30468761920928955,-0.30468761920928955,9.648441314697266,0.0,0.0,0.0
296476384,-0.018737806007266045,-0.011291512288153172,0.9676520824432373,0.2514039874076843,-0.30468761920928955,-0.30468761920928955,9.648441314697266,0.0,0.0,0.0
296481636,-0.018737806007266045,-0.011291512288153172,0.9676520824432373,0.2514039874076843,-0.26953133940696716,-0.30468761920928955,9.687503814697266,0.0,0.0,0.0
296487588,-0.018737806007266045,-0.011291512288153172,0.9676520824432373,0.2514039874076843,-0.30468761920928955,-0.30468761920928955,9.609378814697266,0.0,0.0,0.0
296491892,-0.018737806007266045,-0.011291512288153172,0.9676520824432373,0.2514039874076843,-0.26953133940696716,-0.30468761920928955,9.652347564697266,0.0,0.0,0.0
296496932,-0.018737806007266045,-0.011291512288153172,0.9676520824432373,0.2514039874076843,-0.26953133940696716,-0.30468761920928955,9.652347564697266,0.0,0.0,0.0
296501588,-0.018737806007266045,-0.011291512288153172,0.9676520824432373,0.2514039874076843,-0.30468761920928955,-0.34375011920928955,9.652347564697266,0.0,0.0,0.0
296506980,-0.018737806007266045,-0.011291512288153172,0.9676520824432373,0.2514039874076843,-0.26953133940696716,-0.30468761920928955,9.652347564697266,0.0,0.0,0.0
296511284,-0.018737806007266045,-0.011291512288153172,0.9676520824432373,0.2514039874076843,-0.30468761920928955,-0.34375011920928955,9.652347564697266,0.0,0.0,0.0
296517152,-0.018737806007266045,-0.011291512288153172,0.9676520824432373,0.2514039874076843,-0.30468761920928955,-0.30468761920928955,9.609378814697266,0.0,0.0,0.0
296522744,-0.018737806007266045,-0.011291512288153172,0.9676520824432373,0.2514039874076843,-0.30468761920928955,-0.30468761920928955,9.648441314697266,0.0,0.0,0.0
296527792,-0.018737806007266045,-0.011291512288153172,0.9676520824432373,0.2514039874076843,-0.30468761920928955,-0.30468761920928955,9.648441314697266,0.0,0.0,0.0
296532480,-0.018737806007266045,-0.011291512288153172,0.9676520824432373,0.2514039874076843,-0.30468761920928955,-0.30468761920928955,9.648441314697266,0.0,0.0,0.0
296537892,-0.018737806007266045,-0.011291512288153172,0.9676520824432373,0.2514039874076843,-0.26953133940696716,-0.26953133940696716,9.609378814697266,0.0,0.0,0.0
296543152,-0.018737806007266045,-0.011291512288153172,0.9676520824432373,0.2514039874076843,-0.30468761920928955,-0.30468761920928955,9.582035064697266,0.0,0.0,0.0
296548196,-0.018737806007266045,-0.011291512288153172,0.9676520824432373,0.2514039874076843,-0.30468761920928955,-0.30468761920928955,9.582035064697266,0.0,0.0,0.0
296553432,-0.018737806007266045,-0.011291512288153172,0.9676520824432373,0.2514039874076843,-0.26953133940696716,-0.30468761920928955,9.613285064697266,0.0,0.0,0.0
296558800,-0.018737806007266045,-0.011291512288153172,0.9676520824432373,0.2514039874076843,-0.26953133940696716,-0.30468761920928955,9.613285064697266,0.0,0.0,0.0
296564068,-0.018737806007266045,-0.011291512288153172,0.9676520824432373,0.2514039874076843,-0.30468761920928955,-0.30468761920928955,9.691410064697266,0.0,0.0,0.0
296569120,-0.018737806007266045,-0.011291512288153172,0.9676520824432373,0.2514039874076843,-0.30468761920928955,-0.30468761920928955,9.691410064697266,0.0,0.0,0.0
296574372,-0.018737806007266045,-0.011291512288153172,0.9676520824432373,0.2514039874076843,-0.30468761920928955,-0.30468761920928955,9.648441314697266,0.0,0.0,0.0
296579864,-0.018737806007266045,-0.011230477131903172,0.9676520824432373,0.2514039874076843,-0.30468761920928955,-0.30468761920928955,9.648441314697266,0.0,0.0,0.0
296586608,-0.018737806007266045,-0.011230477131903172,0.9676520824432373,0.2514039874076843,-0.30468761920928955,-0.30468761920928955,9.691410064697266,0.0,0.0,0.0
296590916,-0.018737806007266045,-0.011230477131903172,0.9676520824432373,0.2514039874076843,-0.26953133940696716,-0.30468761920928955,9.652347564697266,0.0,0.0,0.0
296595940,-0.018737806007266045,-0.011230477131903172,0.9676520824432373,0.2514039874076843,-0.26953133940696716,-0.30468761920928955,9.652347564697266,0.0,0.0,0.0
296601548,-0.018737806007266045,-0.011230477131903172,0.9676520824432373,0.2514039874076843,-0.30468761920928955,-0.26953133940696716,9.613285064697266,0.0,0.0,0.0
296607264,-0.018737806007266045,-0.011230477131903172,0.9676520824432373,0.2514039874076843,-0.30468761920928955,-0.26953133940696716,9.613285064697266,0.0,0.0,0.0
296612512,-0.018737806007266045,-0.011230477131903172,0.9676520824432373,0.2514039874076843,-0.26953133940696716,-0.26953133940696716,9.609378814697266,0.0,0.0,0.0
296617548,-0.018737806007266045,-0.011230477131903172,0.9676520824432373,0.2514039874076843,-0.26953133940696716,-0.26953133940696716,9.609378814697266,0.0,0.0,0.0
296623160,-0.018737806007266045,-0.011230477131903172,0.9676520824432373,0.2514039874076843,-0.30468761920928955,-0.26953133940696716,9.613285064697266,0.0,0.0,0.0
296628548,-0.018737806007266045,-0.011230477131903172,0.9676520824432373,0.2514039874076843,-0.30468761920928955,-0.26953133940696716,9.613285064697266,0.0,0.0,0.0
296632892,-0.018737806007266045,-0.011230477131903172,0.9676520824432373,0.2514039874076843,-0.26953133940696716,-0.34375011920928955,9.648441314697266,0.0,0.0,0.0
296638296,-0.018737806007266045,-0.011230477131903172,0.9676520824432373,0.2514039874076843,-0.26953133940696716,-0.34375011920928955,9.648441314697266,0.0,0.0,0.0
296643532,-0.018737806007266045,-0.011230477131903172,0.9676520824432373,0.2514039874076843,-0.30468761920928955,-0.30468761920928955,9.648441314697266,0.0,0.0,0.0
296648908,-0.018737806007266045,-0.011230477131903172,0.9676520824432373,0.2514039874076843,-0.30468761920928955,-0.30468761920928955,9.648441314697266,0.0,0.0,0.0
296654684,-0.018737806007266045,-0.011230477131903172,0.9676520824432373,0.2514039874076843,-0.30468761920928955,-0.30468761920928955,9.609378814697266,0.0,0.0,0.0
296659924,-0.018737806007266045,-0.011230477131903172,0.9676520824432373,0.2514039874076843,-0.30468761920928955,-0.30468761920928955,9.582035064697266,0.0,0.0,0.0
296665404,-0.018737806007266045,-0.011230477131903172,0.9676520824432373,0.2514039874076843,-0.30468761920928955,-0.30468761920928955,9.691410064697266,0.0,0.0,0.0
296669716,-0.018737806007266045,-0.011230477131903172,0.9676520824432373,0.2514039874076843,-0.30468761920928955,-0.26953133940696716,9.613285064697266,0.0,0.0,0.0
296675128,-0.018737806007266045,-0.011230477131903172,0.9676520824432373,0.2514039874076843,-0.26953133940696716,-0.30468761920928955,9.652347564697266,0.0,0.0,0.0
296679808,-0.018737806007266045,-0.011230477131903172,0.9676520824432373,0.2514039874076843,-0.30468761920928955,-0.34375011920928955,9.613285064697266,0.0,0.0,0.0
296685212,-0.018737806007266045,-0.011230477131903172,0.9676520824432373,0.2514039874076843,-0.30468761920928955,-0.34375011920928955,9.652347564697266,0.0,0.0,0.0
296689520,-0.018737806007266045,-0.011230477131903172,0.9676520824432373,0.2514039874076843,-0.34375011920928955,-0.30468761920928955,9.613285064697266,0.0,0.0,0.0
296694540,-0.018737806007266045,-0.011230477131903172,0.9676520824432373,0.2514039874076843,-0.34375011920928955,-0.30468761920928955,9.613285064697266,0.0,0.0,0.0
296700148,-0.018737806007266045,-0.011230477131903172,0.9676520824432373,0.2514039874076843,-0.30468761920928955,-0.30468761920928955,9.648441314697266,0.0,0.0,0.0
296706264,-0.018737806007266045,-0.011230477131903172,0.9676520824432373,0.2514039874076843,-0.30468761920928955,-0.30468761920928955,9.609378814697266,0.0,0.0,0.0
296710948,-0.018737806007266045,-0.011230477131903172,0.9676520824432373,0.2514039874076843,-0.26953133940696716,-0.30468761920928955,9.652347564697266,0.0,0.0,0.0
296715976,-0.018737806007266045,-0.011230477131903172,0.9676520824432373,0.2514039874076843,-0.26953133940696716,-0.30468761920928955,9.652347564697266,0.0,0.0,0.0
296721568,-0.018737806007266045,-0.011230477131903172,0.9676520824432373,0.2514039874076843,-0.30468761920928955,-0.30468761920928955,9.609378814697266,0.0,0.0,0.0
296726628,-0.018737806007266045,-0.011230477131903172,0.9676520824432373,0.2514039874076843,-0.30468761920928955,-0.30468761920928955,9.609378814697266,0.0,0.0,0.0
296731948,-0.018737806007266045,-0.011230477131903172,0.9676520824432373,0.2514039874076843,-0.30468761920928955,-0.30468761920928955,9.648441314697266,0.0,0.0,0.0
296737680,-0.018737806007266045,-0.011230477131903172,0.9676520824432373,0.2514039874076843,-0.30468761920928955,-0.30468761920928955,9.648441314697266,0.0,0.0,0.0
296742364,-0.018737806007266045,-0.011230477131903172,0.9676520824432373,0.2514039874076843,-0.26953133940696716,-0.30468761920928955,9.687503814697266,0.0,0.0,0.0
296748144,-0.018737806007266045,-0.011230477131903172,0.9676520824432373,0.2514039874076843,-0.26953133940696716,-0.30468761920928955,9.687503814697266,0.0,0.0,0.0
296754324,-0.018737806007266045,-0.011230477131903172,0.9676520824432373,0.2514039874076843,-0.26953133940696716,-0.30468761920928955,9.687503814697266,0.0,0.0,0.0
296759620,-0.018737806007266045,-0.011230477131903172,0.9676520824432373,0.2514039874076843,-0.26953133940696716,-0.30468761920928955,9.687503814697266,0.0,0.0,0.0
296765028,-0.018737806007266045,-0.011230477131903172,0.9676520824432373,0.2514039874076843,-0.30468761920928955,-0.26953133940696716,9.613285064697266,0.0,0.0,0.0
296769720,-0.018737806007266045,-0.011230477131903172,0.9676520824432373,0.2514039874076843,-0.30468761920928955,-0.26953133940696716,9.652347564697266,0.0,0.0,0.0
296774788,-0.018737806007266045,-0.011230477131903172,0.9676520824432373,0.2514039874076843,-0.30468761920928955,-0.26953133940696716,9.652347564697266,0.0,0.0,0.0
296780016,-0.018737806007266045,-0.011230477131903172,0.9676520824432373,0.2514039874076843,-0.34375011920928955,-0.30468761920928955,9.652347564697266,0.0,0.0,0.0
296785112,-0.018737806007266045,-0.011230477131903172,0.9676520824432373,0.2514039874076843,-0.34375011920928955,-0.30468761920928955,9.652347564697266,0.0,0.0,0.0
296790336,-0.018737806007266045,-0.011230477131903172,0.9676520824432373,0.2514039874076843,-0.30468761920928955,-0.30468761920928955,9.648441314697266,0.0,0.0,0.0
296796076,-0.018737806007266045,-0.011230477131903172,0.9676520824432373,0.2514039874076843,-0.30468761920928955,-0.30468761920928955,9.648441314697266,0.0,0.0,0.0
296801352,-0.018737806007266045,-0.011230477131903172,0.9676520824432373,0.2514039874076843,-0.26953133940696716,-0.26953133940696716,9.648441314697266,0.0,0.0,0.0
296807096,-0.018737806007266045,-0.011230477131903172,0.9676520824432373,0.2514039874076843,-0.26953133940696716,-0.26953133940696716,9.648441314697266,0.0,0.0,0.0
296811756,-0.018737806007266045,-0.011230477131903172,0.9676520824432373,0.2514039874076843,-0.30468761920928955,-0.30468761920928955,9.609378814697266,0.0,0.0,0.0
296816796,-0.018737806007266045,-0.011230477131903172,0.9676520824432373,0.2514039874076843,-0.30468761920928955,-0.30468761920928955,9.609378814697266,0.0,0.0,0.0
296822052,-0.018737806007266045,-0.011230477131903172,0.9676520824432373,0.2514039874076843,-0.34375011920928955,-0.30468761920928955,9.613285064697266,0.0,0.0,0.0
296827072,-0.018737806007266045,-0.011169441975653172,0.9676520824432373,0.2514039874076843,-0.34375011920928955,-0.30468761920928955,9.613285064697266,0.0,0.0,0.0
296832980,-0.018737806007266045,-0.011169441975653172,0.9676520824432373,0.2514039874076843,-0.34375011920928955,-0.26953133940696716,9.609378814697266,0.0,0.0,0.0
296838224,-0.018737806007266045,-0.011169441975653172,0.9676520824432373,0.2514039874076843,-0.34375011920928955,-0.30468761920928955,9.613285064697266,0.0,0.0,0.0
296843584,-0.018737806007266045,-0.011169441975653172,0.9676520824432373,0.2514039874076843,-0.30468761920928955,-0.26953133940696716,9.652347564697266,0.0,0.0,0.0
296848816,-0.018737806007266045,-0.011169441975653172,0.9676520824432373,0.2514039874076843,-0.26953133940696716,-0.30468761920928955,9.613285064697266,0.0,0.0,0.0
296854880,-0.018737806007266045,-0.011169441975653172,0.9676520824432373,0.2514039874076843,-0.26953133940696716,-0.30468761920928955,9.652347564697266,0.0,0.0,0.0
296860180,-0.018737806007266045,-0.011169441975653172,0.9676520824432373,0.2514039874076843,-0.30468761920928955,-0.30468761920928955,9.648441314697266,0.0,0.0,0.0
296865952,-0.018737806007266045,-0.011169441975653172,0.9676520824432373,0.2514039874076843,-0.30468761920928955,-0.30468761920928955,9.648441314697266,0.0,0.0,0.0
296870368,-0.018737806007266045,-0.011169441975653172,0.9676520824432373,0.2514039874076843,-0.30468761920928955,-0.30468761920928955,9.691410064697266,0.0,0.0,0.0
296875860,-0.018737806007266045,-0.011169441975653172,0.9676520824432373,0.2514039874076843,-0.30468761920928955,-0.30468761920928955,9.691410064697266,0.0,0.0,0.0
296880672,-0.018737806007266045,-0.011169441975653172,0.9676520824432373,0.2514039874076843,-0.26953133940696716,-0.26953133940696716,9.691410064697266,0.0,0.0,0.0
296886092,-0.018737806007266045,-0.011169441975653172,0.9676520824432373,0.2514039874076843,-0.26953133940696716,-0.26953133940696716,9.691410064697266,0.0,0.0,0.0
296891980,-0.018737806007266045,-0.011169441975653172,0.9676520824432373,0.2514039874076843,-0.30468761920928955,-0.26953133940696716,9.613285064697266,0.0,0.0,0.0
296897228,-0.018737806007266045,-0.011169441975653172,0.9676520824432373,0.2514039874076843,-0.30468761920928955,-0.30468761920928955,9.582035064697266,0.0,0.0,0.0
296902692,-0.018737806007266045,-0.011169441975653172,0.9676520824432373,0.2514039874076843,-0.30468761920928955,-0.30468761920928955,9.648441314697266,0.0,0.0,0.0
296907368,-0.018737806007266045,-0.011169441975653172,0.9676520824432373,0.2514039874076843,-0.26953133940696716,-0.30468761920928955,9.652347564697266,0.0,0.0,0.0
296912424,-0.018737806007266045,-0.011169441975653172,0.9676520824432373,0.2514039874076843,-0.26953133940696716,-0.30468761920928955,9.652347564697266,0.0,0.0,0.0
296917736,-0.018737806007266045,-0.011169441975653172,0.9676520824432373,0.2514039874076843,-0.23046883940696716,-0.30468761920928955,9.648441314697266,0.0,0.0,0.0
296923140,-0.018737806007266045,-0.011169441975653172,0.9676520824432373,0.2514039874076843,-0.34375011920928955,-0.30468761920928955,9.652347564697266,0.0,0.0,0.0
296927832,-0.018737806007266045,-0.011169441975653172,0.9676520824432373,0.2514039874076843,-0.30468761920928955,-0.30468761920928955,9.609378814697266,0.0,0.0,0.0
296933224,-0.018737806007266045,-0.011169441975653172,0.9676520824432373,0.2514039874076843,-0.26953133940696716,-0.30468761920928955,9.613285064697266,0.0,0.0,0.0
296938836,-0.018737806007266045,-0.011169441975653172,0.9676520824432373,0.2514039874076843,-0.30468761920928955,-0.30468761920928955,9.609378814697266,0.0,0.0,0.0
296944604,-0.018737806007266045,-0.011169441975653172,0.9676520824432373,0.2514039874076843,-0.30468761920928955,-0.30468761920928955,9.609378814697266,0.0,0.0,0.0
296948904,-0.018737806007266045,-0.011169441975653172,0.9676520824432373,0.2514039874076843,-0.34375011920928955,-0.30468761920928955,9.652347564697266,0.0,0.0,0.0
296954056,-0.018737806007266045,-0.011169441975653172,0.9676520824432373,0.2514039874076843,-0.34375011920928955,-0.30468761920928955,9.652347564697266,0.0,0.0,0.0
296959296,-0.018737806007266045,-0.011169441975653172,0.9676520824432373,0.2514039874076843,-0.30468761920928955,-0.30468761920928955,9.609378814697266,0.0,0.0,0.0
296964684,-0.018737806007266045,-0.011169441975653172,0.9676520824432373,0.2514039874076843,-0.30468761920928955,-0.30468761920928955,9.609378814697266,0.0,0.0,0.0
296969612,-0.018737806007266045,-0.011169441975653172,0.9676520824432373,0.2514039874076843,-0.26953133940696716,-0.30468761920928955,9.613285064697266,0.0,0.0,0.0
296975156,-0.018737806007266045,-0.011169441975653172,0.9676520824432373,0.2514039874076843,-0.26953133940696716,-0.30468761920928955,9.613285064697266,0.0,0.0,0.0
296980756,-0.018737806007266045,-0.011169441975653172,0.9676520824432373,0.2514039874076843,-0.30468761920928955,-0.30468761920928955,9.609378814697266,0.0,0.0,0.0
296985800,-0.018737806007266045,-0.011169441975653172,0.9676520824432373,0.2514039874076843,-0.30468761920928955,-0.30468761920928955,9.609378814697266,0.0,0.0,0.0
296991552,-0.018737806007266045,-0.011169441975653172,0.9676520824432373,0.2514039874076843,-0.26953133940696716,-0.30468761920928955,9.652347564697266,0.0,0.0,0.0
296996796,-0.018737806007266045,-0.011169441975653172,0.9676520824432373,0.2514039874076843,-0.30468761920928955,-0.30468761920928955,9.648441314697266,0.0,0.0,0.0
297002192,-0.018737806007266045,-0.011169441975653172,0.9676520824432373,0.2514039874076843,-0.30468761920928955,-0.30468761920928955,9.648441314697266,0.0,0.0,0.0
297006516,-0.018737806007266045,-0.011169441975653172,0.9676520824432373,0.2514039874076843,-0.26953133940696716,-0.26953133940696716,9.609378814697266,0.0,0.0,0.0
297011920,-0.018737806007266045,-0.011169441975653172,0.9676520824432373,0.2514039874076843,-0.26953133940696716,-0.30468761920928955,9.613285064697266,0.0,0.0,0.0
297016592,-0.018737806007266045,-0.011169441975653172,0.9676520824432373,0.2514039874076843,-0.30468761920928955,-0.30468761920928955,9.648441314697266,0.0,0.0,0.0
297022008,-0.018737806007266045,-0.011169441975653172,0.9676520824432373,0.2514039874076843,-0.26953133940696716,-0.26953133940696716,9.609378814697266,0.0,0.0,0.0
297027636,-0.018737806007266045,-0.011169441975653172,0.9676520824432373,0.2514039874076843,-0.26953133940696716,-0.26953133940696716,9.691410064697266,0.0,0.0,0.0
297033676,-0.018737806007266045,-0.011169441975653172,0.9676520824432373,0.2514039874076843,-0.26953133940696716,-0.26953133940696716,9.691410064697266,0.0,0.0,0.0
297038348,-0.018737806007266045,-0.011169441975653172,0.9676520824432373,0.2514039874076843,-0.30468761920928955,-0.30468761920928955,9.648441314697266,0.0,0.0,0.0
297043804,-0.018737806007266045,-0.011169441975653172,0.9676520824432373,0.2514039874076843,-0.30468761920928955,-0.30468761920928955,9.648441314697266,0.0,0.0,0.0
297048232,-0.018737806007266045,-0.011169441975653172,0.9676520824432373,0.2514039874076843,-0.30468761920928955,-0.26953133940696716,9.652347564697266,0.0,0.0,0.0
297053404,-0.018737806007266045,-0.011169441975653172,0.9676520824432373,0.2514039874076843,-0.30468761920928955,-0.26953133940696716,9.652347564697266,0.0,0.0,0.0
297058688,-0.018737806007266045,-0.011169441975653172,0.9676520824432373,0.2514039874076843,-0.34375011920928955,-0.30468761920928955,9.652347564697266,0.0,0.0,0.0
297063772,-0.018737806007266045,-0.011169441975653172,0.9676520824432373,0.2514039874076843,-0.34375011920928955,-0.30468761920928955,9.652347564697266,0.0,0.0,0.0
297068244,-0.018737806007266045,-0.011169441975653172,0.9676520824432373,0.2514039874076843,-0.30468761920928955,-0.30468761920928955,9.648441314697266,0.0,0.0,0.0
297073996,-0.018737806007266045,-0.011169441975653172,0.9676520824432373,0.2514039874076843,-0.30468761920928955,-0.30468761920928955,9.648441314697266,0.0,0.0,0.0
297078664,-0.018737806007266045,-0.011169441975653172,0.9676520824432373,0.2514039874076843,-0.30468761920928955,-0.30468761920928955,9.648441314697266,0.0,0.0,0.0
297084420,-0.018737806007266045,-0.011169441975653172,0.9676520824432373,0.2514039874076843,-0.30468761920928955,-0.30468761920928955,9.648441314697266,0.0,0.0,0.0
297090672,-0.018737806007266045,-0.011169441975653172,0.9676520824432373,0.2514039874076843,-0.30468761920928955,-0.30468761920928955,9.648441314697266,0.0,0.0,0.0
297095344,-0.018737806007266045,-0.011169441975653172,0.9676520824432373,0.2514039874076843,-0.30468761920928955,-0.30468761920928955,9.691410064697266,0.0,0.0,0.0
297100728,-0.018737806007266045,-0.011169441975653172,0.9676520824432373,0.2514039874076843,-0.26953133940696716,-0.30468761920928955,9.652347564697266,0.0,0.0,0.0
297105976,-0.018737806007266045,-0.011169441975653172,0.9676520824432373,0.2514039874076843,-0.26953133940696716,-0.26953133940696716,9.691410064697266,0.0,0.0,0.0
297111016,-0.018737806007266045,-0.011169441975653172,0.9676520824432373,0.2514039874076843,-0.26953133940696716,-0.26953133940696716,9.691410064697266,0.0,0.0,0.0
297116748,-0.018737806007266045,-0.011169441975653172,0.9676520824432373,0.2514039874076843,-0.30468761920928955,-0.30468761920928955,9.648441314697266,0.0,0.0,0.0
297122644,-0.018737806007266045,-0.011169441975653172,0.9676520824432373,0.2514039874076843,-0.30468761920928955,-0.30468761920928955,9.648441314697266,0.0,0.0,0.0
297127880,-0.018737806007266045,-0.011169441975653172,0.9676520824432373,0.2514039874076843,-0.26953133940696716,-0.34375011920928955,9.609378814697266,0.0,0.0,0.0
297133304,-0.018737806007266045,-0.011169441975653172,0.9676520824432373,0.2514039874076843,-0.26953133940696716,-0.34375011920928955,9.609378814697266,0.0,0.0,0.0
297140048,-0.018737806007266045,-0.011169441975653172,0.9676520824432373,0.2514039874076843,-0.30468761920928955,-0.26953133940696716,9.652347564697266,0.0,0.0,0.0
297144360,-0.018737806007266045,-0.011169441975653172,0.9676520824432373,0.2514039874076843,-0.26953133940696716,-0.30468761920928955,9.613285064697266,0.0,0.0,0.0
297149404,-0.018737806007266045,-0.011169441975653172,0.9676520824432373,0.2514039874076843,-0.26953133940696716,-0.30468761920928955,9.613285064697266,0.0,0.0,0.0
297155088,-0.018737806007266045,-0.011169441975653172,0.9676520824432373,0.2514039874076843,-0.30468761920928955,-0.30468761920928955,9.648441314697266,0.0,0.0,0.0
297160116,-0.018737806007266045,-0.011169441975653172,0.9676520824432373,0.2514039874076843,-0.30468761920928955,-0.30468761920928955,9.648441314697266,0.0,0.0,0.0
297165352,-0.018737806007266045,-0.011169441975653172,0.9676520824432373,0.2514039874076843,-0.30468761920928955,-0.26953133940696716,9.652347564697266,0.0,0.0,0.0
297170764,-0.018737806007266045,-0.011169441975653172,0.9676520824432373,0.2514039874076843,-0.30468761920928955,-0.26953133940696716,9.652347564697266,0.0,0.0,0.0
297176368,-0.018737806007266045,-0.011169441975653172,0.9676520824432373,0.2514039874076843,-0.30468761920928955,-0.30468761920928955,9.691410064697266,0.0,0.0,0.0
297181476,-0.018737806007266045,-0.011169441975653172,0.9676520824432373,0.2514039874076843,-0.30468761920928955,-0.30468761920928955,9.691410064697266,0.0,0.0,0.0
297186720,-0.018737806007266045,-0.011169441975653172,0.9676520824432373,0.2514039874076843,-0.30468761920928955,-0.30468761920928955,9.609378814697266,0.0,0.0,0.0
297191752,-0.018737806007266045,-0.011169441975653172,0.9676520824432373,0.2514039874076843,-0.30468761920928955,-0.30468761920928955,9.609378814697266,0.0,0.0,0.0
297196448,-0.018737806007266045,-0.011169441975653172,0.9676520824432373,0.2514039874076843,-0.30468761920928955,-0.30468761920928955,9.582035064697266,0.0,0.0,0.0
297201460,-0.018737806007266045,-0.011169441975653172,0.9676520824432373,0.2514039874076843,-0.30468761920928955,-0.30468761920928955,9.582035064697266,0.0,0.0,0.0
297206120,-0.018737806007266045,-0.011169441975653172,0.9676520824432373,0.2514039874076843,-0.30468761920928955,-0.30468761920928955,9.609378814697266,0.0,0.0,0.0
297211876,-0.018737806007266045,-0.011169441975653172,0.9676520824432373,0.2514039874076843,-0.30468761920928955,-0.30468761920928955,9.609378814697266,0.0,0.0,0.0
297216576,-0.018737806007266045,-0.011169441975653172,0.9676520824432373,0.2514039874076843,-0.30468761920928955,-0.30468761920928955,9.648441314697266,0.0,0.0,0.0
