Timestamp,QI,QJ,QK,QR,AX,AY,AZ,GX,GY,GZ
2485,0.0,0.0,0.0,0.0,-0.05859377235174179,-0.4882814288139343,9.722660064697266,0.0,0.0,0.0
2491,0.0,0.0,0.0,0.0,-0.07812502980232239,-0.4882814288139343,9.722660064697266,0.0,0.0,0.0
2498,0.0,0.0,0.0,0.0,-0.06640627235174179,-0.5156251788139343,9.710941314697266,0.0,0.0,0.0
2505,0.0,0.0,0.0,0.0,-0.07812502980232239,-0.5156251788139343,9.710941314697266,0.0,0.0,0.0
2512,0.0,0.0,0.0,0.0,-0.08593752980232239,-0.5156251788139343,9.714847564697266,0.0,0.0,0.0
2521,0.0,0.0,0.0,0.0,-0.07812502980232239,-0.5273439288139343,9.687503814697266,0.0,0.0,0.0
2529,0.0,0.0,0.0,0.0,-0.08593752980232239,-0.4882814288139343,9.671878814697266,0.0,0.0,0.0
2544,0.0,0.0,0.0,0.0,-0.08593752980232239,-0.4882814288139343,9.671878814697266,0.001953126396983862,0.0,-0.007812505587935448
2560,0.0,0.0,0.0,0.0,-0.06640627235174179,-0.5078126788139343,9.734378814697266,0.001953126396983862,0.0,-0.007812505587935448
2568,0.0,0.0,0.0,0.0,-0.06640627235174179,-0.5078126788139343,9.734378814697266,-0.003906252793967724,0.007812505587935448,0.0
2597,0.0,0.0,0.0,0.0,-0.06640627235174179,-0.5078126788139343,9.734378814697266,0.0,0.003906252793967724,-0.001953126396983862
2617,0.0,0.0,0.0,0.0,-0.06640627235174179,-0.5078126788139343,9.734378814697266,0.005859379190951586,0.0,0.001953126396983862
2636,0.0,0.0,0.0,0.0,-0.05859377235174179,-0.5273439288139343,9.710941314697266,0.005859379190951586,0.0,0.001953126396983862
2646,0.0,0.0,0.0,0.0,-0.05859377235174179,-0.5273439288139343,9.710941314697266,0.001953126396983862,-0.003906252793967724,-0.005859379190951586
2655,0.0,0.0,0.0,0.0,-0.05859377235174179,-0.5273439288139343,9.710941314697266,-0.001953126396983862,-0.003906252793967724,-0.005859379190951586
2663,0.0,0.0,0.0,0.0,-0.06640627235174179,-0.5273439288139343,9.726566314697266,-0.001953126396983862,-0.003906252793967724,-0.005859379190951586
2672,0.0,0.0,0.0,0.0,-0.05859377235174179,-0.4960939288139343,9.714847564697266,-0.001953126396983862,-0.003906252793967724,-0.005859379190951586
2684,0.0,0.0,0.0,0.0,-0.039062514901161194,-0.5156251788139343,9.710941314697266,-0.001953126396983862,-0.003906252793967724,-0.005859379190951586
2694,0.0,0.0,0.0,0.0,-0.05859377235174179,-0.5078126788139343,9.707035064697266,-0.001953126396983862,-0.003906252793967724,-0.005859379190951586
2702,0.0,0.0,0.0,0.0,-0.046875014901161194,-0.4960939288139343,9.691410064697266,-0.001953126396983862,-0.003906252793967724,-0.005859379190951586
2714,0.0,0.0,0.0,0.0,-0.05859377235174179,-0.4882814288139343,9.734378814697266,-0.001953126396983862,-0.003906252793967724,-0.005859379190951586
2723,0.0,0.0,0.0,0.0,-0.05859377235174179,-0.4882814288139343,9.734378814697266,-0.007812505587935448,0.001953126396983862,0.0
2733,0.0,0.0,0.0,0.0,-0.046875014901161194,-0.5078126788139343,9.710941314697266,-0.007812505587935448,0.001953126396983862,0.0
2742,0.0,0.0,0.0,0.0,-0.07812502980232239,-0.5156251788139343,9.707035064697266,-0.007812505587935448,0.001953126396983862,0.0
2748,0.0,0.0,0.0,0.0,-0.046875014901161194,-0.5078126788139343,9.710941314697266,-0.007812505587935448,0.001953126396983862,0.0
2756,0.0,0.0,0.0,0.0,-0.046875014901161194,-0.5078126788139343,9.710941314697266,0.0,-0.003906252793967724,0.003906252793967724
2766,0.0,0.0,0.0,0.0,-0.06640627235174179,-0.5156251788139343,9.726566314697266,0.0,-0.003906252793967724,0.003906252793967724
2776,0.0,0.0,0.0,0.0,-0.06640627235174179,-0.5156251788139343,9.726566314697266,0.009765632450580597,-0.011718758381903172,0.007812505587935448
2785,0.0,0.0,0.0,0.0,-0.06640627235174179,-0.5156251788139343,9.726566314697266,0.007812505587935448,-0.005859379190951586,0.001953126396983862
2794,0.0,0.0,0.0,0.0,-0.06640627235174179,-0.5156251788139343,9.726566314697266,0.007812505587935448,-0.001953126396983862,-0.001953126396983862
2803,0.0,0.0,0.0,0.0,-0.07812502980232239,-0.4960939288139343,9.691410064697266,0.007812505587935448,-0.001953126396983862,-0.001953126396983862
2811,0.0,0.0,0.0,0.0,-0.05859377235174179,-0.5156251788139343,9.726566314697266,0.007812505587935448,-0.001953126396983862,-0.001953126396983862
2821,0.0,0.0,0.0,0.0,-0.06640627235174179,-0.4960939288139343,9.703128814697266,0.007812505587935448,-0.001953126396983862,-0.001953126396983862
2835,0.0,0.0,0.0,0.0,-0.06640627235174179,-0.4960939288139343,9.691410064697266,0.007812505587935448,-0.001953126396983862,-0.001953126396983862
2844,0.0,0.0,0.0,0.0,-0.06640627235174179,-0.4960939288139343,9.691410064697266,0.003906252793967724,0.0,-0.005859379190951586
2853,0.0,0.0,0.0,0.0,-0.06640627235174179,-0.4960939288139343,9.691410064697266,0.005859379190951586,-0.001953126396983862,0.0
2863,0.0,0.0,0.0,0.0,-0.06640627235174179,-0.4960939288139343,9.691410064697266,0.001953126396983862,0.005859379190951586,-0.003906252793967724
2872,0.0,0.0,0.0,0.0,-0.07812502980232239,-0.5273439288139343,9.679691314697266,0.001953126396983862,0.005859379190951586,-0.003906252793967724
2880,0.0,0.0,0.0,0.0,-0.08593752980232239,-0.4882814288139343,9.730472564697266,0.001953126396983862,0.005859379190951586,-0.003906252793967724
2892,0.0,0.0,0.0,0.0,-0.07812502980232239,-0.5078126788139343,9.750003814697266,0.001953126396983862,0.005859379190951586,-0.003906252793967724
2902,0.0,0.0,0.0,0.0,-0.05859377235174179,-0.4960939288139343,9.671878814697266,0.001953126396983862,0.005859379190951586,-0.003906252793967724
2911,0.0,0.0,0.0,0.0,-0.05859377235174179,-0.5156251788139343,9.722660064697266,0.001953126396983862,0.005859379190951586,-0.003906252793967724
2923,0.0,0.0,0.0,0.0,-0.08593752980232239,-0.4960939288139343,9.687503814697266,0.001953126396983862,0.005859379190951586,-0.003906252793967724
2931,0.0,0.0,0.0,0.0,-0.08593752980232239,-0.4960939288139343,9.687503814697266,0.007812505587935448,-0.007812505587935448,0.005859379190951586
2940,0.0,0.0,0.0,0.0,-0.05859377235174179,-0.4960939288139343,9.691410064697266,0.007812505587935448,-0.007812505587935448,0.005859379190951586
2948,0.0,0.0,0.0,0.0,-0.06640627235174179,-0.4804689288139343,9.707035064697266,0.007812505587935448,-0.007812505587935448,0.005859379190951586
2955,-0.026123065501451492,0.0031738304533064365,-0.00024414079962298274,0.9996345043182373,-0.06640627235174179,-0.4804689288139343,9.707035064697266,0.007812505587935448,-0.007812505587935448,0.005859379190951586
2964,-0.026123065501451492,0.0031738304533064365,-0.00024414079962298274,0.9996345043182373,-0.06640627235174179,-0.4804689288139343,9.707035064697266,0.0,-0.001953126396983862,0.001953126396983862
2994,-0.026123065501451492,0.0031738304533064365,-0.00024414079962298274,0.9996345043182373,-0.06640627235174179,-0.4804689288139343,9.707035064697266,0.007812505587935448,-0.001953126396983862,0.003906252793967724
3003,-0.026123065501451492,0.0031738304533064365,-0.00024414079962298274,0.9996345043182373,-0.06640627235174179,-0.4804689288139343,9.707035064697266,0.005859379190951586,0.0,0.003906252793967724
3013,-0.026123065501451492,0.0031738304533064365,-0.00024414079962298274,0.9996345043182373,-0.046875014901161194,-0.5078126788139343,9.722660064697266,0.005859379190951586,0.0,0.003906252793967724
3034,-0.026123065501451492,0.0031738304533064365,-0.00024414079962298274,0.9996345043182373,-0.046875014901161194,-0.5078126788139343,9.722660064697266,0.003906252793967724,-0.001953126396983862,-0.001953126396983862
3052,-0.026123065501451492,0.0031738304533064365,-0.00024414079962298274,0.9996345043182373,-0.06640627235174179,-0.4882814288139343,9.726566314697266,0.003906252793967724,-0.001953126396983862,-0.001953126396983862
3061,-0.026123065501451492,0.0031738304533064365,-0.00024414079962298274,0.9996345043182373,-0.06640627235174179,-0.4882814288139343,9.726566314697266,-0.001953126396983862,-0.003906252793967724,0.005859379190951586
3070,-0.026123065501451492,0.0031738304533064365,-0.00024414079962298274,0.9996345043182373,-0.06640627235174179,-0.4882814288139343,9.726566314697266,0.001953126396983862,-0.003906252793967724,0.005859379190951586
3080,-0.026123065501451492,0.0031738304533064365,-0.00024414079962298274,0.9996345043182373,-0.046875014901161194,-0.5078126788139343,9.707035064697266,0.001953126396983862,-0.003906252793967724,0.005859379190951586
3088,-0.026123065501451492,0.0031738304533064365,-0.00024414079962298274,0.9996345043182373,-0.039062514901161194,-0.4960939288139343,9.718753814697266,0.001953126396983862,-0.003906252793967724,0.005859379190951586
3100,-0.026123065501451492,0.0031738304533064365,-0.00024414079962298274,0.9996345043182373,-0.06640627235174179,-0.5078126788139343,9.722660064697266,0.001953126396983862,-0.003906252793967724,0.005859379190951586
3109,-0.026123065501451492,0.0031738304533064365,-0.00024414079962298274,0.9996345043182373,-0.06640627235174179,-0.4960939288139343,9.730472564697266,0.001953126396983862,-0.003906252793967724,0.005859379190951586
3119,-0.026123065501451492,0.0031738304533064365,-0.00024414079962298274,0.9996345043182373,-0.05859377235174179,-0.5078126788139343,9.679691314697266,0.001953126396983862,-0.003906252793967724,0.005859379190951586
3124,-0.026123065501451492,0.0031738304533064365,-0.00024414079962298274,0.9996345043182373,-0.05859377235174179,-0.4960939288139343,9.730472564697266,0.001953126396983862,-0.003906252793967724,0.005859379190951586
3133,-0.026123065501451492,0.0031738304533064365,-0.00024414079962298274,0.9996345043182373,-0.05859377235174179,-0.4960939288139343,9.730472564697266,0.0,0.001953126396983862,0.0
3142,-0.026123065501451492,0.0031738304533064365,-0.00024414079962298274,0.9996345043182373,-0.05859377235174179,-0.4960939288139343,9.730472564697266,0.0,0.001953126396983862,0.001953126396983862
3162,-0.026123065501451492,0.0031738304533064365,-0.00024414079962298274,0.9996345043182373,-0.05859377235174179,-0.4960939288139343,9.730472564697266,0.001953126396983862,-0.005859379190951586,0.005859379190951586
3191,-0.026123065501451492,0.0031738304533064365,-0.00024414079962298274,0.9996345043182373,-0.05859377235174179,-0.4960939288139343,9.730472564697266,-0.003906252793967724,-0.001953126396983862,-0.001953126396983862
3212,-0.026123065501451492,0.0031738304533064365,-0.00024414079962298274,0.9996345043182373,-0.05859377235174179,-0.4960939288139343,9.730472564697266,-0.003906252793967724,0.001953126396983862,-0.003906252793967724
3230,-0.026123065501451492,0.0031738304533064365,-0.00024414079962298274,0.9996345043182373,-0.05859377235174179,-0.4960939288139343,9.730472564697266,0.005859379190951586,-0.003906252793967724,0.003906252793967724
3250,-0.026123065501451492,0.0031738304533064365,-0.00024414079962298274,0.9996345043182373,-0.07812502980232239,-0.4882814288139343,9.675785064697266,0.005859379190951586,-0.003906252793967724,0.003906252793967724
3259,-0.026123065501451492,0.0031738304533064365,-0.00024414079962298274,0.9996345043182373,-0.07812502980232239,-0.4882814288139343,9.675785064697266,0.005859379190951586,-0.003906252793967724,0.0
3268,-0.026123065501451492,0.0031738304533064365,-0.00024414079962298274,0.9996345043182373,-0.07812502980232239,-0.4882814288139343,9.675785064697266,0.003906252793967724,0.0,-0.003906252793967724
3277,-0.026123065501451492,0.0031738304533064365,-0.00024414079962298274,0.9996345043182373,-0.07812502980232239,-0.4882814288139343,9.675785064697266,0.001953126396983862,0.0,-0.005859379190951586
3287,-0.026123065501451492,0.0031738304533064365,-0.00024414079962298274,0.9996345043182373,-0.08593752980232239,-0.4960939288139343,9.726566314697266,0.001953126396983862,0.0,-0.005859379190951586
3298,-0.026123065501451492,0.0031738304533064365,-0.00024414079962298274,0.9996345043182373,-0.039062514901161194,-0.4882814288139343,9.679691314697266,0.001953126396983862,0.0,-0.005859379190951586
3307,-0.026123065501451492,0.0031738304533064365,-0.00024414079962298274,0.9996345043182373,-0.039062514901161194,-0.4882814288139343,9.679691314697266,-0.001953126396983862,0.001953126396983862,0.005859379190951586
3316,-0.026123065501451492,0.0031738304533064365,-0.00024414079962298274,0.9996345043182373,-0.05859377235174179,-0.5078126788139343,9.707035064697266,-0.001953126396983862,0.001953126396983862,0.005859379190951586
3329,-0.026123065501451492,0.0031738304533064365,-0.00024414079962298274,0.9996345043182373,-0.046875014901161194,-0.4960939288139343,9.718753814697266,-0.001953126396983862,0.001953126396983862,0.005859379190951586
3338,-0.026123065501451492,0.0031738304533064365,-0.00024414079962298274,0.9996345043182373,-0.046875014901161194,-0.4960939288139343,9.718753814697266,-0.005859379190951586,0.0,0.005859379190951586
3345,-0.026123065501451492,0.0031738304533064365,-0.00024414079962298274,0.9996345043182373,-0.046875014901161194,-0.4960939288139343,9.718753814697266,0.0,0.001953126396983862,0.005859379190951586
3352,-0.026123065501451492,0.0031738304533064365,-0.00024414079962298274,0.9996345043182373,-0.06640627235174179,-0.4804689288139343,9.707035064697266,0.0,0.001953126396983862,0.005859379190951586
3361,-0.026123065501451492,0.0031738304533064365,-0.00024414079962298274,0.9996345043182373,-0.06640627235174179,-0.4804689288139343,9.707035064697266,0.003906252793967724,0.005859379190951586,0.003906252793967724
3369,-0.026123065501451492,0.0031738304533064365,-0.00024414079962298274,0.9996345043182373,-0.06640627235174179,-0.4804689288139343,9.707035064697266,0.005859379190951586,0.001953126396983862,0.005859379190951586
3400,-0.026123065501451492,0.0031738304533064365,-0.00024414079962298274,0.9996345043182373,-0.06640627235174179,-0.4804689288139343,9.707035064697266,0.0,0.005859379190951586,0.005859379190951586
3408,-0.026123065501451492,0.0031738304533064365,-0.00024414079962298274,0.9996345043182373,-0.06640627235174179,-0.4804689288139343,9.707035064697266,-0.003906252793967724,0.009765632450580597,0.001953126396983862
3419,-0.026123065501451492,0.0031738304533064365,-0.00024414079962298274,0.9996345043182373,-0.06640627235174179,-0.4804689288139343,9.707035064697266,-0.003906252793967724,0.005859379190951586,-0.003906252793967724
3428,-0.026123065501451492,0.0031738304533064365,-0.00024414079962298274,0.9996345043182373,-0.046875014901161194,-0.5156251788139343,9.750003814697266,-0.003906252793967724,0.005859379190951586,-0.003906252793967724
3437,-0.026123065501451492,0.0031738304533064365,-0.00024414079962298274,0.9996345043182373,-0.05859377235174179,-0.4960939288139343,9.714847564697266,-0.003906252793967724,0.005859379190951586,-0.003906252793967724
3446,-0.026123065501451492,0.0031738304533064365,-0.00024414079962298274,0.9996345043182373,-0.05859377235174179,-0.4960939288139343,9.714847564697266,-0.003906252793967724,-0.001953126396983862,0.001953126396983862
3456,-0.026123065501451492,0.0031738304533064365,-0.00024414079962298274,0.9996345043182373,-0.039062514901161194,-0.5351564288139343,9.714847564697266,-0.003906252793967724,-0.001953126396983862,0.001953126396983862
3465,-0.026123065501451492,0.0031738304533064365,-0.00024414079962298274,0.9996345043182373,-0.07812502980232239,-0.4960939288139343,9.718753814697266,-0.003906252793967724,-0.001953126396983862,0.001953126396983862
3477,-0.026123065501451492,0.0031738304533064365,-0.00024414079962298274,0.9996345043182373,-0.05859377235174179,-0.5156251788139343,9.710941314697266,-0.003906252793967724,-0.001953126396983862,0.001953126396983862
3485,-0.026123065501451492,0.0031738304533064365,-0.00024414079962298274,0.9996345043182373,-0.05859377235174179,-0.5156251788139343,9.710941314697266,-0.003906252793967724,0.005859379190951586,-0.005859379190951586
3494,-0.026123065501451492,0.0031738304533064365,-0.00024414079962298274,0.9996345043182373,-0.046875014901161194,-0.5156251788139343,9.687503814697266,-0.003906252793967724,0.005859379190951586,-0.005859379190951586
3501,-0.026123065501451492,0.0031738304533064365,-0.00024414079962298274,0.9996345043182373,-0.06640627235174179,-0.5078126788139343,9.722660064697266,-0.003906252793967724,0.005859379190951586,-0.005859379190951586
3510,-0.026123065501451492,0.0031738304533064365,-0.00024414079962298274,0.9996345043182373,-0.06640627235174179,-0.5078126788139343,9.722660064697266,-0.003906252793967724,0.003906252793967724,-0.005859379190951586
3518,-0.026123065501451492,0.0031738304533064365,-0.00024414079962298274,0.9996345043182373,-0.06640627235174179,-0.5078126788139343,9.722660064697266,-0.005859379190951586,0.001953126396983862,-0.003906252793967724
3538,-0.026123065501451492,0.0031738304533064365,-0.00024414079962298274,0.9996345043182373,-0.05859377235174179,-0.5078126788139343,9.707035064697266,-0.005859379190951586,0.001953126396983862,-0.003906252793967724
3558,-0.026123065501451492,0.0031738304533064365,-0.00024414079962298274,0.9996345043182373,-0.05859377235174179,-0.5078126788139343,9.707035064697266,0.001953126396983862,-0.003906252793967724,0.005859379190951586
3576,-0.026123065501451492,0.0031738304533064365,-0.00024414079962298274,0.9996345043182373,-0.05859377235174179,-0.5078126788139343,9.707035064697266,-0.001953126396983862,0.0,-0.001953126396983862
3586,-0.026123065501451492,0.0031738304533064365,-0.00024414079962298274,0.9996345043182373,-0.05859377235174179,-0.5078126788139343,9.707035064697266,0.001953126396983862,-0.003906252793967724,0.003906252793967724
3595,-0.026123065501451492,0.0031738304533064365,-0.00024414079962298274,0.9996345043182373,-0.05859377235174179,-0.4882814288139343,9.707035064697266,0.001953126396983862,-0.003906252793967724,0.003906252793967724
3604,-0.026123065501451492,0.0031738304533064365,-0.00024414079962298274,0.9996345043182373,-0.05859377235174179,-0.5156251788139343,9.726566314697266,0.001953126396983862,-0.003906252793967724,0.003906252793967724
3613,-0.026123065501451492,0.0031738304533064365,-0.00024414079962298274,0.9996345043182373,-0.046875014901161194,-0.5273439288139343,9.710941314697266,0.001953126396983862,-0.003906252793967724,0.003906252793967724
3624,-0.026123065501451492,0.0031738304533064365,-0.00024414079962298274,0.9996345043182373,-0.027343759313225746,-0.5156251788139343,9.738285064697266,0.001953126396983862,-0.003906252793967724,0.003906252793967724
3634,-0.026123065501451492,0.0031738304533064365,-0.00024414079962298274,0.9996345043182373,-0.046875014901161194,-0.5156251788139343,9.687503814697266,0.001953126396983862,-0.003906252793967724,0.003906252793967724
3643,-0.026123065501451492,0.0031738304533064365,-0.00024414079962298274,0.9996345043182373,-0.05859377235174179,-0.4882814288139343,9.710941314697266,0.001953126396983862,-0.003906252793967724,0.003906252793967724
3655,-0.026123065501451492,0.0031738304533064365,-0.00024414079962298274,0.9996345043182373,-0.06640627235174179,-0.4960939288139343,9.703128814697266,0.001953126396983862,-0.003906252793967724,0.003906252793967724
3664,-0.026123065501451492,0.0031738304533064365,-0.00024414079962298274,0.9996345043182373,-0.05859377235174179,-0.4687501788139343,9.710941314697266,0.001953126396983862,-0.003906252793967724,0.003906252793967724
3673,-0.026123065501451492,0.0031738304533064365,-0.00024414079962298274,0.9996345043182373,-0.05859377235174179,-0.5156251788139343,9.707035064697266,0.001953126396983862,-0.003906252793967724,0.003906252793967724
3679,-0.026123065501451492,0.0031738304533064365,-0.00024414079962298274,0.9996345043182373,-0.06640627235174179,-0.5273439288139343,9.761722564697266,0.001953126396983862,-0.003906252793967724,0.003906252793967724
3688,-0.026123065501451492,0.0031738304533064365,-0.00024414079962298274,0.9996345043182373,-0.06640627235174179,-0.5273439288139343,9.761722564697266,0.0,0.0,0.0
3697,-0.026123065501451492,0.0031738304533064365,-0.00024414079962298274,0.9996345043182373,-0.06640627235174179,-0.5273439288139343,9.761722564697266,0.0,0.0,0.0
3706,-0.026123065501451492,0.0031738304533064365,-0.00024414079962298274,0.9996345043182373,-0.039062514901161194,-0.5156251788139343,9.707035064697266,0.0,0.0,0.0
3716,-0.026123065501451492,0.0031738304533064365,-0.00024414079962298274,0.9996345043182373,-0.039062514901161194,-0.5156251788139343,9.707035064697266,0.0,0.0,0.0
3725,-0.026123065501451492,0.0031738304533064365,-0.00024414079962298274,0.9996345043182373,-0.039062514901161194,-0.5156251788139343,9.707035064697266,0.0,0.0,0.0
3734,-0.026123065501451492,0.0031738304533064365,-0.00024414079962298274,0.9996345043182373,-0.05859377235174179,-0.5156251788139343,9.707035064697266,0.0,0.0,0.0
3743,-0.026123065501451492,0.0031738304533064365,-0.00024414079962298274,0.9996345043182373,-0.05859377235174179,-0.5078126788139343,9.722660064697266,0.0,0.0,0.0
3753,-0.026123065501451492,0.0031738304533064365,-0.00024414079962298274,0.9996345043182373,-0.07812502980232239,-0.4882814288139343,9.707035064697266,0.0,0.0,0.0
3763,-0.026123065501451492,0.0031738304533064365,-0.00024414079962298274,0.9996345043182373,-0.07812502980232239,-0.4882814288139343,9.707035064697266,0.0,0.0,0.0
3771,-0.026123065501451492,0.0031738304533064365,-0.00024414079962298274,0.9996345043182373,-0.039062514901161194,-0.5156251788139343,9.710941314697266,0.0,0.0,0.0
3783,-0.026123065501451492,0.0031738304533064365,-0.00024414079962298274,0.9996345043182373,-0.07812502980232239,-0.4960939288139343,9.691410064697266,0.0,0.0,0.0
3792,-0.026123065501451492,0.0031738304533064365,-0.00024414079962298274,0.9996345043182373,-0.07812502980232239,-0.4960939288139343,9.691410064697266,0.0,0.0,0.0
3802,-0.026123065501451492,0.0031738304533064365,-0.00024414079962298274,0.9996345043182373,-0.06640627235174179,-0.5078126788139343,9.707035064697266,0.0,0.0,0.0
3813,-0.026123065501451492,0.0031738304533064365,-0.00024414079962298274,0.9996345043182373,-0.06640627235174179,-0.5078126788139343,9.726566314697266,0.0,0.0,0.0
3822,-0.026123065501451492,0.0031738304533064365,-0.00024414079962298274,0.9996345043182373,-0.06640627235174179,-0.5078126788139343,9.726566314697266,0.0,0.0,0.0
3830,-0.026123065501451492,0.0031738304533064365,-0.00024414079962298274,0.9996345043182373,-0.06640627235174179,-0.5078126788139343,9.726566314697266,0.0,0.0,0.0
3837,-0.026123065501451492,0.0031738304533064365,-0.00024414079962298274,0.9996345043182373,-0.05859377235174179,-0.5078126788139343,9.710941314697266,0.0,0.0,0.0
3846,-0.026123065501451492,0.0031738304533064365,-0.00024414079962298274,0.9996345043182373,-0.05859377235174179,-0.5078126788139343,9.710941314697266,0.0,0.0,0.0
3855,-0.026123065501451492,0.0031738304533064365,-0.00024414079962298274,0.9996345043182373,-0.05859377235174179,-0.5078126788139343,9.710941314697266,0.0,0.0,0.0
3885,-0.026123065501451492,0.0031738304533064365,-0.00024414079962298274,0.9996345043182373,-0.05859377235174179,-0.5078126788139343,9.710941314697266,0.0,0.0,0.0
3914,-0.026123065501451492,0.0031738304533064365,-0.00024414079962298274,0.9996345043182373,-0.05859377235174179,-0.5078126788139343,9.710941314697266,0.0,0.0,0.0
3954,-0.026123065501451492,0.0031738304533064365,-0.00024414079962298274,0.9996345043182373,-0.05859377235174179,-0.5078126788139343,9.710941314697266,0.0,0.0,0.0
3974,-0.026123065501451492,0.0031738304533064365,-0.00024414079962298274,0.9996345043182373,-0.05859377235174179,-0.5078126788139343,9.710941314697266,0.0,0.0,0.0
3992,-0.026123065501451492,0.0031738304533064365,-0.00024414079962298274,0.9996345043182373,-0.05859377235174179,-0.5078126788139343,9.710941314697266,0.0,0.0,0.0
4013,-0.026123065501451492,0.0031738304533064365,-0.00024414079962298274,0.9996345043182373,-0.07812502980232239,-0.4882814288139343,9.679691314697266,0.0,0.0,0.0
4022,-0.026123065501451492,0.0031738304533064365,-0.00024414079962298274,0.9996345043182373,-0.07812502980232239,-0.4882814288139343,9.679691314697266,0.0,0.0,0.0
4032,-0.026123065501451492,0.0031738304533064365,-0.00024414079962298274,0.9996345043182373,-0.07812502980232239,-0.4882814288139343,9.679691314697266,0.0,0.0,0.0
4040,-0.026123065501451492,0.0031738304533064365,-0.00024414079962298274,0.9996345043182373,-0.07812502980232239,-0.4882814288139343,9.679691314697266,0.0,0.0,0.0
4049,-0.026123065501451492,0.0031738304533064365,-0.00024414079962298274,0.9996345043182373,-0.05859377235174179,-0.4882814288139343,9.687503814697266,0.0,0.0,0.0
4059,-0.026123065501451492,0.0031738304533064365,-0.00024414079962298274,0.9996345043182373,-0.05859377235174179,-0.4804689288139343,9.707035064697266,0.0,0.0,0.0
4071,-0.026123065501451492,0.0031738304533064365,-0.00024414079962298274,0.9996345043182373,-0.05859377235174179,-0.4960939288139343,9.714847564697266,0.0,0.0,0.0
4079,-0.026123065501451492,0.0031738304533064365,-0.00024414079962298274,0.9996345043182373,-0.046875014901161194,-0.5078126788139343,9.722660064697266,0.0,0.0,0.0
4088,-0.026123065501451492,0.0031738304533064365,-0.00024414079962298274,0.9996345043182373,-0.046875014901161194,-0.4960939288139343,9.714847564697266,0.0,0.0,0.0
4094,-0.026123065501451492,0.0031738304533064365,-0.00024414079962298274,0.9996345043182373,-0.027343759313225746,-0.5156251788139343,9.714847564697266,0.0,0.0,0.0
4104,-0.026123065501451492,0.0031738304533064365,-0.00024414079962298274,0.9996345043182373,-0.027343759313225746,-0.5156251788139343,9.714847564697266,0.0,0.0,0.0
4112,-0.026123065501451492,0.0031738304533064365,-0.00024414079962298274,0.9996345043182373,-0.027343759313225746,-0.5156251788139343,9.714847564697266,0.0,0.0,0.0
4132,-0.026123065501451492,0.0031738304533064365,-0.00024414079962298274,0.9996345043182373,-0.027343759313225746,-0.5156251788139343,9.714847564697266,0.0,0.0,0.0
4152,-0.026123065501451492,0.0031738304533064365,-0.00024414079962298274,0.9996345043182373,-0.06640627235174179,-0.5078126788139343,9.722660064697266,0.0,0.0,0.0
4171,-0.026123065501451492,0.0031738304533064365,-0.00024414079962298274,0.9996345043182373,-0.06640627235174179,-0.5078126788139343,9.722660064697266,0.0,0.0,0.0
4180,-0.026123065501451492,0.0031738304533064365,-0.00024414079962298274,0.9996345043182373,-0.06640627235174179,-0.5078126788139343,9.722660064697266,0.0,0.0,0.0
4189,-0.026123065501451492,0.0031738304533064365,-0.00024414079962298274,0.9996345043182373,-0.06640627235174179,-0.5156251788139343,9.726566314697266,0.0,0.0,0.0
4198,-0.026123065501451492,0.0031738304533064365,-0.00024414079962298274,0.9996345043182373,-0.05859377235174179,-0.5078126788139343,9.710941314697266,0.0,0.0,0.0
4207,-0.026123065501451492,0.0031738304533064365,-0.00024414079962298274,0.9996345043182373,-0.046875014901161194,-0.4804689288139343,9.710941314697266,0.0,0.0,0.0
4220,-0.026123065501451492,0.0031738304533064365,-0.00024414079962298274,0.9996345043182373,-0.08593752980232239,-0.5156251788139343,9.718753814697266,0.0,0.0,0.0
4230,-0.026123065501451492,0.0031738304533064365,-0.00024414079962298274,0.9996345043182373,-0.08593752980232239,-0.5156251788139343,9.718753814697266,0.0,0.0,0.0
4240,-0.026123065501451492,0.0031738304533064365,-0.00024414079962298274,0.9996345043182373,-0.08593752980232239,-0.5156251788139343,9.718753814697266,0.0,0.0,0.0
4248,-0.026123065501451492,0.0031738304533064365,-0.00024414079962298274,0.9996345043182373,-0.08593752980232239,-0.5156251788139343,9.718753814697266,0.0,0.0,0.0
4257,-0.026123065501451492,0.0031738304533064365,-0.00024414079962298274,0.9996345043182373,-0.06640627235174179,-0.5156251788139343,9.710941314697266,0.0,0.0,0.0
4267,-0.026123065501451492,0.0031738304533064365,-0.00024414079962298274,0.9996345043182373,-0.046875014901161194,-0.5156251788139343,9.710941314697266,0.0,0.0,0.0
4279,-0.026123065501451492,0.0031738304533064365,-0.00024414079962298274,0.9996345043182373,-0.06640627235174179,-0.4960939288139343,9.738285064697266,0.0,0.0,0.0
4287,-0.026123065501451492,0.0031738304533064365,-0.00024414079962298274,0.9996345043182373,-0.05859377235174179,-0.4960939288139343,9.718753814697266,0.0,0.0,0.0
4296,-0.026123065501451492,0.0031738304533064365,-0.00024414079962298274,0.9996345043182373,-0.05859377235174179,-0.5078126788139343,9.750003814697266,0.0,0.0,0.0
4308,-0.026123065501451492,0.0031738304533064365,-0.00024414079962298274,0.9996345043182373,-0.07812502980232239,-0.5078126788139343,9.707035064697266,0.0,0.0,0.0
4318,-0.026123065501451492,0.0031738304533064365,-0.00024414079962298274,0.9996345043182373,-0.07812502980232239,-0.5078126788139343,9.707035064697266,0.0,0.0,0.0
4326,-0.026123065501451492,0.0031738304533064365,-0.00024414079962298274,0.9996345043182373,-0.046875014901161194,-0.5273439288139343,9.722660064697266,0.0,0.0,0.0
4335,-0.026123065501451492,0.0031738304533064365,-0.00024414079962298274,0.9996345043182373,-0.046875014901161194,-0.5078126788139343,9.734378814697266,0.0,0.0,0.0
4341,-0.026123065501451492,0.0031738304533064365,-0.00024414079962298274,0.9996345043182373,-0.07812502980232239,-0.4960939288139343,9.703128814697266,0.0,0.0,0.0
4350,-0.026123065501451492,0.0031738304533064365,-0.00024414079962298274,0.9996345043182373,-0.07812502980232239,-0.4960939288139343,9.703128814697266,0.0,0.0,0.0
4360,-0.026123065501451492,0.0031738304533064365,-0.00024414079962298274,0.9996345043182373,-0.07812502980232239,-0.5156251788139343,9.761722564697266,0.0,0.0,0.0
4370,-0.026123065501451492,0.0031738304533064365,-0.00024414079962298274,0.9996345043182373,-0.046875014901161194,-0.4960939288139343,9.703128814697266,0.0,0.0,0.0
4389,-0.026123065501451492,0.0031738304533064365,-0.00024414079962298274,0.9996345043182373,-0.046875014901161194,-0.4960939288139343,9.703128814697266,0.0,0.0,0.0
4408,-0.026123065501451492,0.0031738304533064365,-0.00024414079962298274,0.9996345043182373,-0.05859377235174179,-0.5273439288139343,9.750003814697266,0.0,0.0,0.0
4418,-0.026123065501451492,0.0031738304533064365,-0.00024414079962298274,0.9996345043182373,-0.05859377235174179,-0.5273439288139343,9.750003814697266,0.0,0.0,0.0
4426,-0.026123065501451492,0.0031738304533064365,-0.00024414079962298274,0.9996345043182373,-0.039062514901161194,-0.5078126788139343,9.710941314697266,0.0,0.0,0.0
4435,-0.026123065501451492,0.0031738304533064365,-0.00024414079962298274,0.9996345043182373,-0.07812502980232239,-0.4960939288139343,9.703128814697266,0.0,0.0,0.0
4445,-0.026123065501451492,0.0031738304533064365,-0.00024414079962298274,0.9996345043182373,-0.05859377235174179,-0.5078126788139343,9.710941314697266,0.0,0.0,0.0
4451,-0.026123065501451492,0.0031738304533064365,-0.00024414079962298274,0.9996345043182373,-0.039062514901161194,-0.5078126788139343,9.722660064697266,0.0,0.0,0.0
4459,-0.026123065501451492,0.0031738304533064365,-0.00024414079962298274,0.9996345043182373,-0.039062514901161194,-0.5078126788139343,9.722660064697266,0.0,0.0,0.0
4469,-0.026123065501451492,0.0031738304533064365,-0.00024414079962298274,0.9996345043182373,-0.05859377235174179,-0.5273439288139343,9.722660064697266,0.0,0.0,0.0
4478,-0.026123065501451492,0.0031738304533064365,-0.00024414079962298274,0.9996345043182373,-0.05859377235174179,-0.5273439288139343,9.722660064697266,0.0,0.0,0.0
4488,-0.026123065501451492,0.0031738304533064365,-0.00024414079962298274,0.9996345043182373,-0.05859377235174179,-0.5273439288139343,9.722660064697266,0.0,0.0,0.0
4497,-0.026123065501451492,0.0031738304533064365,-0.00024414079962298274,0.9996345043182373,-0.05859377235174179,-0.5078126788139343,9.707035064697266,0.0,0.0,0.0
4506,-0.026123065501451492,0.0031738304533064365,-0.00024414079962298274,0.9996345043182373,-0.07812502980232239,-0.4960939288139343,9.703128814697266,0.0,0.0,0.0
4514,-0.026123065501451492,0.0031738304533064365,-0.00024414079962298274,0.9996345043182373,-0.05859377235174179,-0.5156251788139343,9.687503814697266,0.0,0.0,0.0
4520,-0.026123065501451492,0.0031738304533064365,-0.00024414079962298274,0.9996345043182373,-0.07812502980232239,-0.4960939288139343,9.683597564697266,0.0,0.0,0.0
4531,-0.026123065501451492,0.0031738304533064365,-0.00024414079962298274,0.9996345043182373,-0.07812502980232239,-0.4960939288139343,9.683597564697266,0.0,0.0,0.0
4540,-0.026123065501451492,0.0031738304533064365,-0.00024414079962298274,0.9996345043182373,-0.07812502980232239,-0.4960939288139343,9.683597564697266,0.0,0.0,0.0
4548,-0.026123065501451492,0.0031738304533064365,-0.00024414079962298274,0.9996345043182373,-0.07812502980232239,-0.4960939288139343,9.683597564697266,0.0,0.0,0.0
4557,-0.026123065501451492,0.0031738304533064365,-0.00024414079962298274,0.9996345043182373,-0.07812502980232239,-0.4960939288139343,9.683597564697266,0.0,0.0,0.0
4567,-0.026123065501451492,0.0031738304533064365,-0.00024414079962298274,0.9996345043182373,-0.039062514901161194,-0.4960939288139343,9.703128814697266,0.0,0.0,0.0
4576,-0.026123065501451492,0.0031738304533064365,-0.00024414079962298274,0.9996345043182373,-0.06640627235174179,-0.5078126788139343,9.726566314697266,0.0,0.0,0.0
4586,-0.026123065501451492,0.0031738304533064365,-0.00024414079962298274,0.9996345043182373,-0.046875014901161194,-0.5078126788139343,9.722660064697266,0.0,0.0,0.0
4595,-0.026123065501451492,0.0031738304533064365,-0.00024414079962298274,0.9996345043182373,-0.046875014901161194,-0.5078126788139343,9.722660064697266,0.0,0.0,0.0
4603,-0.026123065501451492,0.0031738304533064365,-0.00024414079962298274,0.9996345043182373,-0.06640627235174179,-0.5273439288139343,9.734378814697266,0.0,0.0,0.0
4613,-0.026123065501451492,0.0031738304533064365,-0.00024414079962298274,0.9996345043182373,-0.046875014901161194,-0.4960939288139343,9.730472564697266,0.0,0.0,0.0
4619,-0.026123065501451492,0.0031738304533064365,-0.00024414079962298274,0.9996345043182373,-0.06640627235174179,-0.4960939288139343,9.714847564697266,0.0,0.0,0.0
4628,-0.026123065501451492,0.0031738304533064365,-0.00024414079962298274,0.9996345043182373,-0.06640627235174179,-0.4960939288139343,9.714847564697266,0.0,0.0,0.0
4636,-0.026123065501451492,0.0031738304533064365,-0.00024414079962298274,0.9996345043182373,-0.06640627235174179,-0.4960939288139343,9.714847564697266,0.0,0.0,0.0
4646,-0.026123065501451492,0.0031738304533064365,-0.00024414079962298274,0.9996345043182373,-0.046875014901161194,-0.5078126788139343,9.707035064697266,0.0,0.0,0.0
4667,-0.026123065501451492,0.0031738304533064365,-0.00024414079962298274,0.9996345043182373,-0.046875014901161194,-0.5078126788139343,9.707035064697266,0.0,0.0,0.0
4685,-0.026123065501451492,0.0031738304533064365,-0.00024414079962298274,0.9996345043182373,-0.05859377235174179,-0.5078126788139343,9.734378814697266,0.0,0.0,0.0
4695,-0.026123065501451492,0.0031738304533064365,-0.00024414079962298274,0.9996345043182373,-0.05859377235174179,-0.5078126788139343,9.734378814697266,0.0,0.0,0.0
4703,-0.026123065501451492,0.0031738304533064365,-0.00024414079962298274,0.9996345043182373,-0.039062514901161194,-0.5351564288139343,9.757816314697266,0.0,0.0,0.0
4712,-0.026123065501451492,0.0031738304533064365,-0.00024414079962298274,0.9996345043182373,-0.05859377235174179,-0.5078126788139343,9.726566314697266,0.0,0.0,0.0
4724,-0.026123065501451492,0.0031738304533064365,-0.00024414079962298274,0.9996345043182373,-0.05859377235174179,-0.5078126788139343,9.707035064697266,0.0,0.0,0.0
4733,-0.026123065501451492,0.0031738304533064365,-0.00024414079962298274,0.9996345043182373,-0.05859377235174179,-0.5078126788139343,9.707035064697266,0.0,0.0,0.0
4742,-0.026123065501451492,0.0031738304533064365,-0.00024414079962298274,0.9996345043182373,-0.05859377235174179,-0.5078126788139343,9.722660064697266,0.0,0.0,0.0
4748,-0.026123065501451492,0.0031738304533064365,-0.00024414079962298274,0.9996345043182373,-0.039062514901161194,-0.5156251788139343,9.750003814697266,0.0,0.0,0.0
4757,-0.026123065501451492,0.0031738304533064365,-0.00024414079962298274,0.9996345043182373,-0.039062514901161194,-0.5156251788139343,9.750003814697266,0.0,0.0,0.0
4766,-0.026123065501451492,0.0031738304533064365,-0.00024414079962298274,0.9996345043182373,-0.039062514901161194,-0.5156251788139343,9.750003814697266,0.0,0.0,0.0
4786,-0.026123065501451492,0.0031738304533064365,-0.00024414079962298274,0.9996345043182373,-0.039062514901161194,-0.4960939288139343,9.714847564697266,0.0,0.0,0.0
4805,-0.026123065501451492,0.0031738304533064365,-0.00024414079962298274,0.9996345043182373,-0.039062514901161194,-0.4960939288139343,9.714847564697266,0.0,0.0,0.0
4825,-0.026123065501451492,0.0031738304533064365,-0.00024414079962298274,0.9996345043182373,-0.039062514901161194,-0.5156251788139343,9.722660064697266,0.0,0.0,0.0
4834,-0.026123065501451492,0.0031738304533064365,-0.00024414079962298274,0.9996345043182373,-0.039062514901161194,-0.5156251788139343,9.722660064697266,0.0,0.0,0.0
4853,-0.026123065501451492,0.0031738304533064365,-0.00024414079962298274,0.9996345043182373,-0.046875014901161194,-0.5156251788139343,9.710941314697266,0.0,0.0,0.0
4864,-0.026123065501451492,0.0031738304533064365,-0.00024414079962298274,0.9996345043182373,-0.046875014901161194,-0.5156251788139343,9.710941314697266,0.0,0.0,0.0
4872,-0.026123065501451492,0.0031738304533064365,-0.00024414079962298274,0.9996345043182373,-0.046875014901161194,-0.5156251788139343,9.710941314697266,0.0,0.0,0.0
4881,-0.026123065501451492,0.0031738304533064365,-0.00024414079962298274,0.9996345043182373,-0.046875014901161194,-0.5273439288139343,9.750003814697266,0.0,0.0,0.0
4888,-0.026123065501451492,0.0031738304533064365,-0.00024414079962298274,0.9996345043182373,-0.039062514901161194,-0.5078126788139343,9.750003814697266,0.0,0.0,0.0
4896,-0.026123065501451492,0.002868654439225793,0.00030517601408064365,0.9996345043182373,-0.039062514901161194,-0.5078126788139343,9.750003814697266,0.0,0.0,0.0
4904,-0.026123065501451492,0.002868654439225793,0.00030517601408064365,0.9996345043182373,-0.039062514901161194,-0.5078126788139343,9.750003814697266,0.0,0.0,0.0
4914,-0.026123065501451492,0.002868654439225793,0.00030517601408064365,0.9996345043182373,-0.039062514901161194,-0.4882814288139343,9.707035064697266,0.0,0.0,0.0
4924,-0.026123065501451492,0.002868654439225793,0.00030517601408064365,0.9996345043182373,-0.06640627235174179,-0.4960939288139343,9.730472564697266,0.0,0.0,0.0
4944,-0.026123065501451492,0.002868654439225793,0.00030517601408064365,0.9996345043182373,-0.06640627235174179,-0.4960939288139343,9.730472564697266,0.0,0.0,0.0
4963,-0.026123065501451492,0.002868654439225793,0.00030517601408064365,0.9996345043182373,-0.05859377235174179,-0.5156251788139343,9.710941314697266,0.0,0.0,0.0
4973,-0.026123065501451492,0.002868654439225793,0.00030517601408064365,0.9996345043182373,-0.05859377235174179,-0.5156251788139343,9.710941314697266,0.0,0.0,0.0
4982,-0.026123065501451492,0.002868654439225793,0.00030517601408064365,0.9996345043182373,-0.05859377235174179,-0.5156251788139343,9.710941314697266,0.0,0.0,0.0
4992,-0.026123065501451492,0.002868654439225793,0.00030517601408064365,0.9996345043182373,-0.046875014901161194,-0.4960939288139343,9.738285064697266,0.0,0.0,0.0
5001,-0.026123065501451492,0.002868654439225793,0.00030517601408064365,0.9996345043182373,-0.07812502980232239,-0.4960939288139343,9.691410064697266,0.0,0.0,0.0
5010,-0.026123065501451492,0.002868654439225793,0.00030517601408064365,0.9996345043182373,-0.07812502980232239,-0.4960939288139343,9.691410064697266,0.0,0.0,0.0
5017,-0.026123065501451492,0.002868654439225793,0.00030517601408064365,0.9996345043182373,-0.06640627235174179,-0.4960939288139343,9.703128814697266,0.0,0.0,0.0
5024,-0.026123065501451492,0.002807619282975793,0.00030517601408064365,0.9996345043182373,-0.06640627235174179,-0.4960939288139343,9.703128814697266,0.0,0.0,0.0
5033,-0.026123065501451492,0.002807619282975793,0.00030517601408064365,0.9996345043182373,-0.06640627235174179,-0.4960939288139343,9.703128814697266,0.0,0.0,0.0
5043,-0.026123065501451492,0.002807619282975793,0.00030517601408064365,0.9996345043182373,-0.06640627235174179,-0.4960939288139343,9.703128814697266,0.0,0.0,0.0
5052,-0.026123065501451492,0.002807619282975793,0.00030517601408064365,0.9996345043182373,-0.046875014901161194,-0.5156251788139343,9.734378814697266,0.0,0.0,0.0
5062,-0.026123065501451492,0.002807619282975793,0.00030517601408064365,0.9996345043182373,-0.06640627235174179,-0.5078126788139343,9.722660064697266,0.0,0.0,0.0
5071,-0.026123065501451492,0.002807619282975793,0.00030517601408064365,0.9996345043182373,-0.06640627235174179,-0.5078126788139343,9.722660064697266,0.0,0.0,0.0
5081,-0.026123065501451492,0.002807619282975793,0.00030517601408064365,0.9996345043182373,-0.06640627235174179,-0.5078126788139343,9.722660064697266,0.0,0.0,0.0
5090,-0.026123065501451492,0.002807619282975793,0.00030517601408064365,0.9996345043182373,-0.05859377235174179,-0.5156251788139343,9.710941314697266,0.0,0.0,0.0
5099,-0.026123065501451492,0.002807619282975793,0.00030517601408064365,0.9996345043182373,-0.039062514901161194,-0.5351564288139343,9.714847564697266,0.0,0.0,0.0
5108,-0.026123065501451492,0.002807619282975793,0.00030517601408064365,0.9996345043182373,-0.05859377235174179,-0.4960939288139343,9.753910064697266,0.0,0.0,0.0
5120,-0.026123065501451492,0.002807619282975793,0.00030517601408064365,0.9996345043182373,-0.046875014901161194,-0.5156251788139343,9.722660064697266,0.0,0.0,0.0
5129,-0.026123065501451492,0.002807619282975793,0.00030517601408064365,0.9996345043182373,-0.039062514901161194,-0.5273439288139343,9.750003814697266,0.0,0.0,0.0
5138,-0.026123065501451492,0.002807619282975793,0.00030517601408064365,0.9996345043182373,-0.046875014901161194,-0.5273439288139343,9.722660064697266,0.0,0.0,0.0
5150,-0.026123065501451492,0.002807619282975793,0.00030517601408064365,0.9996345043182373,-0.06640627235174179,-0.4687501788139343,9.710941314697266,0.0,0.0,0.0
5158,-0.026123065501451492,0.002807619282975793,0.00030517601408064365,0.9996345043182373,-0.046875014901161194,-0.4960939288139343,9.703128814697266,0.0,0.0,0.0
5168,-0.026123065501451492,0.002807619282975793,0.00030517601408064365,0.9996345043182373,-0.046875014901161194,-0.5273439288139343,9.707035064697266,0.0,0.0,0.0
5180,-0.026123065501451492,0.002807619282975793,0.00030517601408064365,0.9996345043182373,-0.046875014901161194,-0.5156251788139343,9.722660064697266,0.0,0.0,0.0
5189,-0.026123065501451492,0.002807619282975793,0.00030517601408064365,0.9996345043182373,-0.046875014901161194,-0.5156251788139343,9.722660064697266,0.0,0.0,0.0
5197,-0.026123065501451492,0.002807619282975793,0.00030517601408064365,0.9996345043182373,-0.05859377235174179,-0.5078126788139343,9.750003814697266,0.0,0.0,0.0
5204,-0.026123065501451492,0.002807619282975793,0.00030517601408064365,0.9996345043182373,-0.046875014901161194,-0.5078126788139343,9.734378814697266,0.0,0.0,0.0
5213,-0.026123065501451492,0.002807619282975793,0.00030517601408064365,0.9996345043182373,-0.046875014901161194,-0.5078126788139343,9.734378814697266,0.0,0.0,0.0
5221,-0.026123065501451492,0.002807619282975793,0.00030517601408064365,0.9996345043182373,-0.046875014901161194,-0.5078126788139343,9.734378814697266,0.0,0.0,0.0
5241,-0.026123065501451492,0.002807619282975793,0.00030517601408064365,0.9996345043182373,-0.046875014901161194,-0.5078126788139343,9.734378814697266,0.0,0.0,0.0
5271,-0.026123065501451492,0.002807619282975793,0.00030517601408064365,0.9996345043182373,-0.046875014901161194,-0.5078126788139343,9.734378814697266,0.0,0.0,0.0
5291,-0.026123065501451492,0.002807619282975793,0.00030517601408064365,0.9996345043182373,-0.046875014901161194,-0.5078126788139343,9.734378814697266,0.0,0.0,0.0
5309,-0.026123065501451492,0.002807619282975793,0.00030517601408064365,0.9996345043182373,-0.05859377235174179,-0.4960939288139343,9.718753814697266,0.0,0.0,0.0
5319,-0.026123065501451492,0.002807619282975793,0.00030517601408064365,0.9996345043182373,-0.05859377235174179,-0.4960939288139343,9.718753814697266,0.0,0.0,0.0
5327,-0.026123065501451492,0.002807619282975793,0.00030517601408064365,0.9996345043182373,-0.05859377235174179,-0.4960939288139343,9.718753814697266,0.0,0.0,0.0
5337,-0.026123065501451492,0.002807619282975793,0.00030517601408064365,0.9996345043182373,-0.046875014901161194,-0.5078126788139343,9.726566314697266,0.0,0.0,0.0
5346,-0.026123065501451492,0.002807619282975793,0.00030517601408064365,0.9996345043182373,-0.07812502980232239,-0.5156251788139343,9.726566314697266,0.0,0.0,0.0
5357,-0.026123065501451492,0.002807619282975793,0.00030517601408064365,0.9996345043182373,-0.06640627235174179,-0.5078126788139343,9.710941314697266,0.0,0.0,0.0
5366,-0.026123065501451492,0.002807619282975793,0.00030517601408064365,0.9996345043182373,-0.05859377235174179,-0.5078126788139343,9.726566314697266,0.0,0.0,0.0
5376,-0.026123065501451492,0.002807619282975793,0.00030517601408064365,0.9996345043182373,-0.05859377235174179,-0.5156251788139343,9.726566314697266,0.0,0.0,0.0
5388,-0.026123065501451492,0.002807619282975793,0.00030517601408064365,0.9996345043182373,-0.046875014901161194,-0.4882814288139343,9.750003814697266,0.0,0.0,0.0
5396,-0.026123065501451492,0.002807619282975793,0.00030517601408064365,0.9996345043182373,-0.046875014901161194,-0.4882814288139343,9.750003814697266,0.0,0.0,0.0
5405,-0.026123065501451492,0.002807619282975793,0.00030517601408064365,0.9996345043182373,-0.05859377235174179,-0.5156251788139343,9.726566314697266,0.0,0.0,0.0
5414,-0.026123065501451492,0.002807619282975793,0.00030517601408064365,0.9996345043182373,-0.039062514901161194,-0.5078126788139343,9.722660064697266,0.0,0.0,0.0
5421,-0.026123065501451492,0.002807619282975793,0.00030517601408064365,0.9996345043182373,-0.046875014901161194,-0.5078126788139343,9.761722564697266,0.0,0.0,0.0
5430,-0.026123065501451492,0.002807619282975793,0.00030517601408064365,0.9996345043182373,-0.046875014901161194,-0.5078126788139343,9.761722564697266,0.0,0.0,0.0
5440,-0.026123065501451492,0.002807619282975793,0.00030517601408064365,0.9996345043182373,-0.046875014901161194,-0.5273439288139343,9.726566314697266,0.0,0.0,0.0
5448,-0.026123065501451492,0.002807619282975793,0.00030517601408064365,0.9996345043182373,-0.046875014901161194,-0.5273439288139343,9.726566314697266,0.0,0.0,0.0
5457,-0.026123065501451492,0.002807619282975793,0.00030517601408064365,0.9996345043182373,-0.046875014901161194,-0.5273439288139343,9.726566314697266,0.0,0.0,0.0
5467,-0.026123065501451492,0.002807619282975793,0.00030517601408064365,0.9996345043182373,-0.046875014901161194,-0.5273439288139343,9.726566314697266,0.0,0.0,0.0
5476,-0.026123065501451492,0.002807619282975793,0.00030517601408064365,0.9996345043182373,-0.039062514901161194,-0.4960939288139343,9.718753814697266,0.0,0.0,0.0
5486,-0.026123065501451492,0.002807619282975793,0.00030517601408064365,0.9996345043182373,-0.06640627235174179,-0.5078126788139343,9.750003814697266,0.0,0.0,0.0
5495,-0.026123065501451492,0.002807619282975793,0.00030517601408064365,0.9996345043182373,-0.06640627235174179,-0.5078126788139343,9.750003814697266,0.0,0.0,0.0
5504,-0.026123065501451492,0.002807619282975793,0.00030517601408064365,0.9996345043182373,-0.039062514901161194,-0.4882814288139343,9.726566314697266,0.0,0.0,0.0
5516,-0.026123065501451492,0.002807619282975793,0.00030517601408064365,0.9996345043182373,-0.05859377235174179,-0.5273439288139343,9.707035064697266,0.0,0.0,0.0
5525,-0.026123065501451492,0.002807619282975793,0.00030517601408064365,0.9996345043182373,-0.05859377235174179,-0.5273439288139343,9.707035064697266,0.0,0.0,0.0
5533,-0.026123065501451492,0.002807619282975793,0.00030517601408064365,0.9996345043182373,-0.05859377235174179,-0.5273439288139343,9.707035064697266,0.0,0.0,0.0
5545,-0.026123065501451492,0.002807619282975793,0.00030517601408064365,0.9996345043182373,-0.039062514901161194,-0.4960939288139343,9.730472564697266,0.0,0.0,0.0
5555,-0.026123065501451492,0.002807619282975793,0.00030517601408064365,0.9996345043182373,-0.039062514901161194,-0.4960939288139343,9.730472564697266,0.0,0.0,0.0
5563,-0.026123065501451492,0.002807619282975793,0.00030517601408064365,0.9996345043182373,-0.039062514901161194,-0.4960939288139343,9.730472564697266,0.0,0.0,0.0
5570,-0.026123065501451492,0.002807619282975793,0.00030517601408064365,0.9996345043182373,-0.039062514901161194,-0.5156251788139343,9.707035064697266,0.0,0.0,0.0
5578,-0.026123065501451492,0.002807619282975793,0.00030517601408064365,0.9996345043182373,-0.039062514901161194,-0.5156251788139343,9.707035064697266,0.0,0.0,0.0
5587,-0.026123065501451492,0.002807619282975793,0.00030517601408064365,0.9996345043182373,-0.039062514901161194,-0.5156251788139343,9.707035064697266,0.0,0.0,0.0
5637,-0.026123065501451492,0.002807619282975793,0.00030517601408064365,0.9996345043182373,-0.039062514901161194,-0.5156251788139343,9.707035064697266,0.0,0.0,0.0
5656,-0.026123065501451492,0.002807619282975793,0.00030517601408064365,0.9996345043182373,-0.05859377235174179,-0.5078126788139343,9.734378814697266,0.0,0.0,0.0
5665,-0.026123065501451492,0.002807619282975793,0.00030517601408064365,0.9996345043182373,-0.05859377235174179,-0.5078126788139343,9.734378814697266,0.0,0.0,0.0
5676,-0.026123065501451492,0.002807619282975793,0.00030517601408064365,0.9996345043182373,-0.05859377235174179,-0.5078126788139343,9.734378814697266,0.0,0.0,0.0
5684,-0.026123065501451492,0.002807619282975793,0.00030517601408064365,0.9996345043182373,-0.046875014901161194,-0.5156251788139343,9.726566314697266,0.0,0.0,0.0
5694,-0.026123065501451492,0.002807619282975793,0.00030517601408064365,0.9996345043182373,-0.046875014901161194,-0.5156251788139343,9.726566314697266,0.0,0.0,0.0
5703,-0.026123065501451492,0.002807619282975793,0.00030517601408064365,0.9996345043182373,-0.046875014901161194,-0.5156251788139343,9.726566314697266,0.0,0.0,0.0
5711,-0.026123065501451492,0.002807619282975793,0.00030517601408064365,0.9996345043182373,-0.05859377235174179,-0.5078126788139343,9.726566314697266,0.0,0.0,0.0
5724,-0.026123065501451492,0.002807619282975793,0.00030517601408064365,0.9996345043182373,-0.027343759313225746,-0.5273439288139343,9.757816314697266,0.0,0.0,0.0
5733,-0.026123065501451492,0.002807619282975793,0.00030517601408064365,0.9996345043182373,-0.027343759313225746,-0.5273439288139343,9.757816314697266,0.0,0.0,0.0
5741,-0.026123065501451492,0.002807619282975793,0.00030517601408064365,0.9996345043182373,-0.027343759313225746,-0.5273439288139343,9.757816314697266,0.0,0.0,0.0
5753,-0.026123065501451492,0.002807619282975793,0.00030517601408064365,0.9996345043182373,-0.05859377235174179,-0.5273439288139343,9.726566314697266,0.0,0.0,0.0
5762,-0.026123065501451492,0.002807619282975793,0.00030517601408064365,0.9996345043182373,-0.05859377235174179,-0.5273439288139343,9.726566314697266,0.0,0.0,0.0
5771,-0.026123065501451492,0.002807619282975793,0.00030517601408064365,0.9996345043182373,-0.027343759313225746,-0.5156251788139343,9.730472564697266,0.0,0.0,0.0
5778,-0.026123065501451492,0.002807619282975793,0.00030517601408064365,0.9996345043182373,-0.027343759313225746,-0.5078126788139343,9.738285064697266,0.0,0.0,0.0
5787,-0.026123065501451492,0.002807619282975793,0.00030517601408064365,0.9996345043182373,-0.027343759313225746,-0.5078126788139343,9.738285064697266,0.0,0.0,0.0
5795,-0.026123065501451492,0.002807619282975793,0.00030517601408064365,0.9996345043182373,-0.027343759313225746,-0.5078126788139343,9.738285064697266,0.0,0.0,0.0
5825,-0.026123065501451492,0.002807619282975793,0.00030517601408064365,0.9996345043182373,-0.027343759313225746,-0.5078126788139343,9.738285064697266,0.0,0.0,0.0
5855,-0.026123065501451492,0.002807619282975793,0.00030517601408064365,0.9996345043182373,-0.027343759313225746,-0.5078126788139343,9.738285064697266,0.0,0.0,0.0
5895,-0.026123065501451492,0.002807619282975793,0.00030517601408064365,0.9996345043182373,-0.027343759313225746,-0.5078126788139343,9.738285064697266,0.0,0.0,0.0
5914,-0.026123065501451492,0.002807619282975793,0.00030517601408064365,0.9996345043182373,-0.027343759313225746,-0.5078126788139343,9.738285064697266,0.0,0.0,0.0
5934,-0.026123065501451492,0.002807619282975793,0.00030517601408064365,0.9996345043182373,-0.05859377235174179,-0.5078126788139343,9.726566314697266,0.0,0.0,0.0
5943,-0.026123065501451492,0.002807619282975793,0.00030517601408064365,0.9996345043182373,-0.05859377235174179,-0.5078126788139343,9.726566314697266,0.0,0.0,0.0
5962,-0.026123065501451492,0.002807619282975793,0.00030517601408064365,0.9996345043182373,-0.046875014901161194,-0.5078126788139343,9.707035064697266,0.0,0.0,0.0
5972,-0.026123065501451492,0.002807619282975793,0.00030517601408064365,0.9996345043182373,-0.046875014901161194,-0.5078126788139343,9.707035064697266,0.0,0.0,0.0
5981,-0.026123065501451492,0.002807619282975793,0.00030517601408064365,0.9996345043182373,-0.046875014901161194,-0.5078126788139343,9.707035064697266,0.0,0.0,0.0
5990,-0.026123065501451492,0.002807619282975793,0.00030517601408064365,0.9996345043182373,-0.046875014901161194,-0.4882814288139343,9.750003814697266,0.0,0.0,0.0
5999,-0.026123065501451492,0.002807619282975793,0.00030517601408064365,0.9996345043182373,-0.05859377235174179,-0.5273439288139343,9.722660064697266,0.0,0.0,0.0
6005,-0.026123065501451492,0.002807619282975793,0.00030517601408064365,0.9996345043182373,-0.046875014901161194,-0.4960939288139343,9.730472564697266,0.0,0.0,0.0
6013,-0.026123065501451492,0.002807619282975793,0.00030517601408064365,0.9996345043182373,-0.046875014901161194,-0.4960939288139343,9.730472564697266,0.0,0.0,0.0
6023,-0.026123065501451492,0.002807619282975793,0.00030517601408064365,0.9996345043182373,-0.046875014901161194,-0.4960939288139343,9.730472564697266,0.0,0.0,0.0
6033,-0.026123065501451492,0.002807619282975793,0.00030517601408064365,0.9996345043182373,-0.05859377235174179,-0.5156251788139343,9.726566314697266,0.0,0.0,0.0
6052,-0.026123065501451492,0.002807619282975793,0.00030517601408064365,0.9996345043182373,-0.05859377235174179,-0.5156251788139343,9.726566314697266,0.0,0.0,0.0
6071,-0.026123065501451492,0.002807619282975793,0.00030517601408064365,0.9996345043182373,-0.039062514901161194,-0.5156251788139343,9.710941314697266,0.0,0.0,0.0
6080,-0.026123065501451492,0.002807619282975793,0.00030517601408064365,0.9996345043182373,-0.039062514901161194,-0.5156251788139343,9.710941314697266,0.0,0.0,0.0
6089,-0.026123065501451492,0.002807619282975793,0.00030517601408064365,0.9996345043182373,-0.039062514901161194,-0.5156251788139343,9.710941314697266,0.0,0.0,0.0
6098,-0.026123065501451492,0.002807619282975793,0.00030517601408064365,0.9996345043182373,-0.05859377235174179,-0.5078126788139343,9.750003814697266,0.0,0.0,0.0
6110,-0.026123065501451492,0.002807619282975793,0.00030517601408064365,0.9996345043182373,-0.046875014901161194,-0.4882814288139343,9.750003814697266,0.0,0.0,0.0
6119,-0.026123065501451492,0.002807619282975793,0.00030517601408064365,0.9996345043182373,-0.046875014901161194,-0.4882814288139343,9.750003814697266,0.0,0.0,0.0
6128,-0.026123065501451492,0.002807619282975793,0.00030517601408064365,0.9996345043182373,-0.046875014901161194,-0.5156251788139343,9.726566314697266,0.0,0.0,0.0
6134,-0.026123065501451492,0.002807619282975793,0.00030517601408064365,0.9996345043182373,-0.05859377235174179,-0.5078126788139343,9.722660064697266,0.0,0.0,0.0
6142,-0.026123065501451492,0.002807619282975793,0.00030517601408064365,0.9996345043182373,-0.05859377235174179,-0.5078126788139343,9.722660064697266,0.0,0.0,0.0
6152,-0.026123065501451492,0.002807619282975793,0.00030517601408064365,0.9996345043182373,-0.05859377235174179,-0.5078126788139343,9.722660064697266,0.0,0.0,0.0
6171,-0.026123065501451492,0.002807619282975793,0.00030517601408064365,0.9996345043182373,-0.039062514901161194,-0.5156251788139343,9.726566314697266,0.0,0.0,0.0
6192,-0.026123065501451492,0.002807619282975793,0.00030517601408064365,0.9996345043182373,-0.039062514901161194,-0.5156251788139343,9.726566314697266,0.0,0.0,0.0
6210,-0.026123065501451492,0.002807619282975793,0.00030517601408064365,0.9996345043182373,-0.046875014901161194,-0.4960939288139343,9.714847564697266,0.0,0.0,0.0
6220,-0.026123065501451492,0.002807619282975793,0.00030517601408064365,0.9996345043182373,-0.046875014901161194,-0.4960939288139343,9.714847564697266,0.0,0.0,0.0
6241,-0.026123065501451492,0.002807619282975793,0.00030517601408064365,0.9996345043182373,-0.05859377235174179,-0.5078126788139343,9.722660064697266,0.0,0.0,0.0
6250,-0.026123065501451492,0.002807619282975793,0.00030517601408064365,0.9996345043182373,-0.05859377235174179,-0.5078126788139343,9.722660064697266,0.0,0.0,0.0
6259,-0.026123065501451492,0.002807619282975793,0.00030517601408064365,0.9996345043182373,-0.05859377235174179,-0.5078126788139343,9.722660064697266,0.0,0.0,0.0
6268,-0.026123065501451492,0.002807619282975793,0.00030517601408064365,0.9996345043182373,-0.07812502980232239,-0.5078126788139343,9.734378814697266,0.0,0.0,0.0
6277,-0.026123065501451492,0.002807619282975793,0.00030517601408064365,0.9996345043182373,-0.039062514901161194,-0.5078126788139343,9.734378814697266,0.0,0.0,0.0
6286,-0.026123065501451492,0.002807619282975793,0.00030517601408064365,0.9996345043182373,-0.046875014901161194,-0.5078126788139343,9.710941314697266,0.0,0.0,0.0
6298,-0.026123065501451492,0.002807619282975793,0.00030517601408064365,0.9996345043182373,-0.039062514901161194,-0.5078126788139343,9.734378814697266,0.0,0.0,0.0
6307,-0.026123065501451492,0.002807619282975793,0.00030517601408064365,0.9996345043182373,-0.05859377235174179,-0.5078126788139343,9.722660064697266,0.0,0.0,0.0
6316,-0.026123065501451492,0.002807619282975793,0.00030517601408064365,0.9996345043182373,-0.05859377235174179,-0.5273439288139343,9.710941314697266,0.0,0.0,0.0
6328,-0.026123065501451492,0.002807619282975793,0.00030517601408064365,0.9996345043182373,-0.046875014901161194,-0.5468751788139343,9.730472564697266,0.0,0.0,0.0
6337,-0.026123065501451492,0.002807619282975793,0.00030517601408064365,0.9996345043182373,-0.039062514901161194,-0.4960939288139343,9.703128814697266,0.0,0.0,0.0
6346,-0.026123065501451492,0.002807619282975793,0.00030517601408064365,0.9996345043182373,-0.039062514901161194,-0.5078126788139343,9.726566314697266,0.0,0.0,0.0
6351,-0.026123065501451492,0.002807619282975793,0.00030517601408064365,0.9996345043182373,-0.06640627235174179,-0.5078126788139343,9.761722564697266,0.0,0.0,0.0
6361,-0.026123065501451492,0.002807619282975793,0.00030517601408064365,0.9996345043182373,-0.06640627235174179,-0.5078126788139343,9.761722564697266,0.0,0.0,0.0
6370,-0.026123065501451492,0.002807619282975793,0.00030517601408064365,0.9996345043182373,-0.06640627235174179,-0.5078126788139343,9.761722564697266,0.0,0.0,0.0
6389,-0.026123065501451492,0.002807619282975793,0.00030517601408064365,0.9996345043182373,-0.06640627235174179,-0.5078126788139343,9.761722564697266,0.0,0.0,0.0
6420,-0.026123065501451492,0.002807619282975793,0.00030517601408064365,0.9996345043182373,-0.06640627235174179,-0.5078126788139343,9.761722564697266,0.0,0.0,0.0
6428,-0.026123065501451492,0.002807619282975793,0.00030517601408064365,0.9996345043182373,-0.06640627235174179,-0.5078126788139343,9.761722564697266,0.0,0.0,0.0
6437,-0.026123065501451492,0.002807619282975793,0.00030517601408064365,0.9996345043182373,-0.06640627235174179,-0.5078126788139343,9.761722564697266,0.0,0.0,0.0
6448,-0.026123065501451492,0.002807619282975793,0.00030517601408064365,0.9996345043182373,-0.039062514901161194,-0.4960939288139343,9.757816314697266,0.0,0.0,0.0
6457,-0.026123065501451492,0.002807619282975793,0.00030517601408064365,0.9996345043182373,-0.046875014901161194,-0.5078126788139343,9.734378814697266,0.0,0.0,0.0
6466,-0.026123065501451492,0.002807619282975793,0.00030517601408064365,0.9996345043182373,-0.046875014901161194,-0.5078126788139343,9.734378814697266,0.0,0.0,0.0
6475,-0.026123065501451492,0.002807619282975793,0.00030517601408064365,0.9996345043182373,-0.05859377235174179,-0.5156251788139343,9.726566314697266,0.0,0.0,0.0
6483,-0.026123065501451492,0.002807619282975793,0.00030517601408064365,0.9996345043182373,-0.05859377235174179,-0.5273439288139343,9.710941314697266,0.0,0.0,0.0
6496,-0.026123065501451492,0.002807619282975793,0.00030517601408064365,0.9996345043182373,-0.039062514901161194,-0.5078126788139343,9.710941314697266,0.0,0.0,0.0
6504,-0.026123065501451492,0.002807619282975793,0.00030517601408064365,0.9996345043182373,-0.039062514901161194,-0.5078126788139343,9.710941314697266,0.0,0.0,0.0
6512,-0.026123065501451492,0.002807619282975793,0.00030517601408064365,0.9996345043182373,-0.046875014901161194,-0.5273439288139343,9.726566314697266,0.0,0.0,0.0
6520,-0.026062030345201492,0.0026855487376451492,0.00030517601408064365,0.9996345043182373,-0.046875014901161194,-0.5273439288139343,9.726566314697266,0.0,0.0,0.0
6530,-0.026062030345201492,0.0026855487376451492,0.00030517601408064365,0.9996345043182373,-0.046875014901161194,-0.5273439288139343,9.726566314697266,0.0,0.0,0.0
6538,-0.026062030345201492,0.0026855487376451492,0.00030517601408064365,0.9996345043182373,-0.046875014901161194,-0.5273439288139343,9.726566314697266,0.0,0.0,0.0
6558,-0.026062030345201492,0.0026855487376451492,0.00030517601408064365,0.9996345043182373,-0.046875014901161194,-0.5273439288139343,9.726566314697266,0.0,0.0,0.0
6588,-0.026062030345201492,0.0026855487376451492,0.00030517601408064365,0.9996345043182373,-0.046875014901161194,-0.5273439288139343,9.726566314697266,0.0,0.0,0.0
6618,-0.026062030345201492,0.0026855487376451492,0.00030517601408064365,0.9996345043182373,-0.046875014901161194,-0.5273439288139343,9.726566314697266,0.0,0.0,0.0
6636,-0.026062030345201492,0.0026855487376451492,0.00030517601408064365,0.9996345043182373,-0.046875014901161194,-0.5273439288139343,9.726566314697266,0.0,0.0,0.0
6645,-0.026062030345201492,0.0026855487376451492,0.00030517601408064365,0.9996345043182373,-0.046875014901161194,-0.5273439288139343,9.726566314697266,0.0,0.0,0.0
6654,-0.026062030345201492,0.0026855487376451492,0.00030517601408064365,0.9996345043182373,-0.06640627235174179,-0.4960939288139343,9.714847564697266,0.0,0.0,0.0
6664,-0.026062030345201492,0.0026855487376451492,0.00030517601408064365,0.9996345043182373,-0.05859377235174179,-0.5078126788139343,9.687503814697266,0.0,0.0,0.0
6672,-0.026062030345201492,0.0026855487376451492,0.00030517601408064365,0.9996345043182373,-0.05859377235174179,-0.5078126788139343,9.687503814697266,0.0,0.0,0.0
6679,-0.026062030345201492,0.0026855487376451492,0.00030517601408064365,0.9996345043182373,-0.039062514901161194,-0.5156251788139343,9.734378814697266,0.0,0.0,0.0
6688,-0.026062030345201492,0.0026855487376451492,0.00030517601408064365,0.9996345043182373,-0.039062514901161194,-0.5156251788139343,9.734378814697266,0.0,0.0,0.0
6696,-0.026062030345201492,0.0026855487376451492,0.00030517601408064365,0.9996345043182373,-0.039062514901161194,-0.5156251788139343,9.734378814697266,0.0,0.0,0.0
6706,-0.026062030345201492,0.0026855487376451492,0.00030517601408064365,0.9996345043182373,-0.039062514901161194,-0.5156251788139343,9.734378814697266,0.0,0.0,0.0
6715,-0.026062030345201492,0.0026855487376451492,0.00030517601408064365,0.9996345043182373,-0.039062514901161194,-0.5156251788139343,9.734378814697266,0.0,0.0,0.0
6724,-0.026062030345201492,0.0026855487376451492,0.00030517601408064365,0.9996345043182373,-0.027343759313225746,-0.5078126788139343,9.753910064697266,0.0,0.0,0.0
6734,-0.026062030345201492,0.0026855487376451492,0.00030517601408064365,0.9996345043182373,0.0,-0.5078126788139343,9.734378814697266,0.0,0.0,0.0
6744,-0.026062030345201492,0.0026855487376451492,0.00030517601408064365,0.9996345043182373,0.0,-0.5078126788139343,9.734378814697266,0.0,-0.003906252793967724,-0.003906252793967724
6752,-0.026062030345201492,0.0026855487376451492,0.00030517601408064365,0.9996345043182373,-0.046875014901161194,-0.5273439288139343,9.734378814697266,0.0,-0.003906252793967724,-0.003906252793967724
6761,-0.026062030345201492,0.0026855487376451492,0.00030517601408064365,0.9996345043182373,-0.05859377235174179,-0.5273439288139343,9.722660064697266,0.0,-0.003906252793967724,-0.003906252793967724
6767,-0.026062030345201492,0.0026855487376451492,0.00030517601408064365,0.9996345043182373,-0.07812502980232239,-0.4960939288139343,9.714847564697266,0.0,-0.003906252793967724,-0.003906252793967724
6776,-0.026062030345201492,0.0026855487376451492,0.00030517601408064365,0.9996345043182373,-0.07812502980232239,-0.4960939288139343,9.714847564697266,-0.009765632450580597,0.001953126396983862,-0.009765632450580597
6785,-0.026062030345201492,0.0026855487376451492,0.00030517601408064365,0.9996345043182373,-0.07812502980232239,-0.4960939288139343,9.714847564697266,-0.007812505587935448,0.007812505587935448,-0.009765632450580597
6796,-0.026062030345201492,0.0026855487376451492,0.00030517601408064365,0.9996345043182373,-0.05859377235174179,-0.5273439288139343,9.722660064697266,-0.007812505587935448,0.007812505587935448,-0.009765632450580597
6815,-0.026062030345201492,0.0026855487376451492,0.00030517601408064365,0.9996345043182373,-0.05859377235174179,-0.5273439288139343,9.722660064697266,0.001953126396983862,0.0,0.001953126396983862
6834,-0.026062030345201492,0.0026855487376451492,0.00030517601408064365,0.9996345043182373,-0.046875014901161194,-0.4960939288139343,9.718753814697266,0.001953126396983862,0.0,0.001953126396983862
6843,-0.026062030345201492,0.0026855487376451492,0.00030517601408064365,0.9996345043182373,-0.046875014901161194,-0.4960939288139343,9.718753814697266,0.003906252793967724,-0.005859379190951586,0.007812505587935448
6852,-0.026062030345201492,0.0026855487376451492,0.00030517601408064365,0.9996345043182373,-0.046875014901161194,-0.4960939288139343,9.718753814697266,0.0,-0.003906252793967724,0.005859379190951586
6861,-0.026062030345201492,0.0026855487376451492,0.00030517601408064365,0.9996345043182373,-0.05859377235174179,-0.4960939288139343,9.703128814697266,0.0,-0.003906252793967724,0.005859379190951586
6871,-0.026062030345201492,0.0026855487376451492,0.00030517601408064365,0.9996345043182373,-0.05859377235174179,-0.5156251788139343,9.726566314697266,0.0,-0.003906252793967724,0.005859379190951586
6883,-0.026062030345201492,0.0026855487376451492,0.00030517601408064365,0.9996345043182373,-0.06640627235174179,-0.4960939288139343,9.738285064697266,0.0,-0.003906252793967724,0.005859379190951586
6891,-0.026062030345201492,0.0026855487376451492,0.00030517601408064365,0.9996345043182373,-0.046875014901161194,-0.5156251788139343,9.750003814697266,0.0,-0.003906252793967724,0.005859379190951586
6900,-0.026062030345201492,0.0026855487376451492,0.00030517601408064365,0.9996345043182373,-0.05859377235174179,-0.5156251788139343,9.726566314697266,0.0,-0.003906252793967724,0.005859379190951586
6913,-0.026062030345201492,0.0026855487376451492,0.00030517601408064365,0.9996345043182373,-0.046875014901161194,-0.4960939288139343,9.738285064697266,0.0,-0.003906252793967724,0.005859379190951586
6922,-0.026062030345201492,0.0026855487376451492,0.00030517601408064365,0.9996345043182373,-0.046875014901161194,-0.4960939288139343,9.738285064697266,-0.005859379190951586,0.0,-0.001953126396983862
6930,-0.026062030345201492,0.0026855487376451492,0.00030517601408064365,0.9996345043182373,-0.06640627235174179,-0.5156251788139343,9.750003814697266,-0.005859379190951586,0.0,-0.001953126396983862
6939,-0.026062030345201492,0.0026855487376451492,0.00030517601408064365,0.9996345043182373,-0.05859377235174179,-0.4960939288139343,9.718753814697266,-0.005859379190951586,0.0,-0.001953126396983862
6945,-0.026062030345201492,0.0026855487376451492,0.00030517601408064365,0.9996345043182373,-0.046875014901161194,-0.5156251788139343,9.734378814697266,-0.005859379190951586,0.0,-0.001953126396983862
6955,-0.026062030345201492,0.0026855487376451492,0.00030517601408064365,0.9996345043182373,-0.046875014901161194,-0.5156251788139343,9.734378814697266,0.001953126396983862,0.0,0.0
6965,-0.026062030345201492,0.0026855487376451492,0.00030517601408064365,0.9996345043182373,-0.05859377235174179,-0.5078126788139343,9.722660064697266,0.001953126396983862,0.0,0.0
6973,-0.026062030345201492,0.0026855487376451492,0.00030517601408064365,0.9996345043182373,-0.05859377235174179,-0.5078126788139343,9.722660064697266,-0.001953126396983862,0.0,0.0
6982,-0.026062030345201492,0.0026855487376451492,0.00030517601408064365,0.9996345043182373,-0.05859377235174179,-0.5078126788139343,9.722660064697266,-0.001953126396983862,0.001953126396983862,0.0
6991,-0.026062030345201492,0.0026855487376451492,0.00030517601408064365,0.9996345043182373,-0.05859377235174179,-0.5078126788139343,9.722660064697266,0.0,0.0,0.0
7001,-0.026062030345201492,0.0026855487376451492,0.00030517601408064365,0.9996345043182373,-0.06640627235174179,-0.4960939288139343,9.718753814697266,0.0,0.0,0.0
7010,-0.026062030345201492,0.0026855487376451492,0.00030517601408064365,0.9996345043182373,-0.05859377235174179,-0.5078126788139343,9.750003814697266,0.0,0.0,0.0
7019,-0.026062030345201492,0.0026855487376451492,0.00030517601408064365,0.9996345043182373,-0.046875014901161194,-0.5273439288139343,9.734378814697266,0.0,0.0,0.0
7025,-0.026062030345201492,0.0026855487376451492,0.00030517601408064365,0.9996345043182373,-0.05859377235174179,-0.5156251788139343,9.722660064697266,0.0,0.0,0.0
7034,-0.026062030345201492,0.0026855487376451492,0.00030517601408064365,0.9996345043182373,-0.05859377235174179,-0.5156251788139343,9.722660064697266,0.001953126396983862,0.003906252793967724,0.001953126396983862
7044,-0.026062030345201492,0.0026855487376451492,0.00030517601408064365,0.9996345043182373,-0.05859377235174179,-0.5156251788139343,9.722660064697266,0.001953126396983862,0.001953126396983862,-0.001953126396983862
7053,-0.026062030345201492,0.0026855487376451492,0.00030517601408064365,0.9996345043182373,-0.05859377235174179,-0.5156251788139343,9.722660064697266,0.001953126396983862,0.0,-0.003906252793967724
7062,-0.026062030345201492,0.0026855487376451492,0.00030517601408064365,0.9996345043182373,-0.05859377235174179,-0.5156251788139343,9.722660064697266,0.005859379190951586,-0.003906252793967724,0.003906252793967724
7071,-0.026062030345201492,0.0026855487376451492,0.00030517601408064365,0.9996345043182373,-0.027343759313225746,-0.5156251788139343,9.738285064697266,0.005859379190951586,-0.003906252793967724,0.003906252793967724
7080,-0.026062030345201492,0.0026855487376451492,0.00030517601408064365,0.9996345043182373,-0.046875014901161194,-0.5078126788139343,9.722660064697266,0.005859379190951586,-0.003906252793967724,0.003906252793967724
7090,-0.026062030345201492,0.0026855487376451492,0.00030517601408064365,0.9996345043182373,-0.046875014901161194,-0.5078126788139343,9.722660064697266,0.001953126396983862,0.009765632450580597,-0.001953126396983862
7099,-0.026062030345201492,0.0026855487376451492,0.00030517601408064365,0.9996345043182373,-0.046875014901161194,-0.4960939288139343,9.753910064697266,0.001953126396983862,0.009765632450580597,-0.001953126396983862
7108,-0.026062030345201492,0.0026855487376451492,0.00030517601408064365,0.9996345043182373,-0.06640627235174179,-0.4960939288139343,9.738285064697266,0.001953126396983862,0.009765632450580597,-0.001953126396983862
7120,-0.026062030345201492,0.0026855487376451492,0.00030517601408064365,0.9996345043182373,-0.039062514901161194,-0.5156251788139343,9.722660064697266,0.001953126396983862,0.009765632450580597,-0.001953126396983862
7129,-0.026062030345201492,0.0026855487376451492,0.00030517601408064365,0.9996345043182373,-0.039062514901161194,-0.5156251788139343,9.722660064697266,0.009765632450580597,-0.001953126396983862,-0.001953126396983862
7138,-0.026062030345201492,0.0026855487376451492,0.00030517601408064365,0.9996345043182373,-0.07812502980232239,-0.5078126788139343,9.734378814697266,0.009765632450580597,-0.001953126396983862,-0.001953126396983862
7144,-0.026062030345201492,0.0026855487376451492,0.00030517601408064365,0.9996345043182373,-0.07812502980232239,-0.5156251788139343,9.722660064697266,0.009765632450580597,-0.001953126396983862,-0.001953126396983862
7153,-0.026062030345201492,0.0026855487376451492,0.00030517601408064365,0.9996345043182373,-0.07812502980232239,-0.5156251788139343,9.722660064697266,0.001953126396983862,-0.001953126396983862,0.0
7161,-0.026062030345201492,0.0026855487376451492,0.00030517601408064365,0.9996345043182373,-0.07812502980232239,-0.5156251788139343,9.722660064697266,-0.003906252793967724,-0.001953126396983862,0.0
7182,-0.026062030345201492,0.0026855487376451492,0.00030517601408064365,0.9996345043182373,-0.05859377235174179,-0.4960939288139343,9.718753814697266,-0.003906252793967724,-0.001953126396983862,0.0
7201,-0.026062030345201492,0.0026855487376451492,0.00030517601408064365,0.9996345043182373,-0.05859377235174179,-0.4960939288139343,9.718753814697266,-0.001953126396983862,0.0,-0.007812505587935448
7241,-0.026062030345201492,0.0026855487376451492,0.00030517601408064365,0.9996345043182373,-0.05859377235174179,-0.4960939288139343,9.718753814697266,0.003906252793967724,-0.007812505587935448,0.005859379190951586
7280,-0.026062030345201492,0.0026855487376451492,0.00030517601408064365,0.9996345043182373,-0.05859377235174179,-0.4960939288139343,9.718753814697266,-0.001953126396983862,0.003906252793967724,0.003906252793967724
7301,-0.026062030345201492,0.0026855487376451492,0.00030517601408064365,0.9996345043182373,-0.05859377235174179,-0.4960939288139343,9.718753814697266,-0.003906252793967724,0.003906252793967724,-0.003906252793967724
7319,-0.026062030345201492,0.0026855487376451492,0.00030517601408064365,0.9996345043182373,-0.05859377235174179,-0.5078126788139343,9.726566314697266,-0.003906252793967724,0.003906252793967724,-0.003906252793967724
7329,-0.026062030345201492,0.0026855487376451492,0.00030517601408064365,0.9996345043182373,-0.05859377235174179,-0.5078126788139343,9.726566314697266,0.0,0.003906252793967724,0.003906252793967724
7339,-0.026062030345201492,0.0026855487376451492,0.00030517601408064365,0.9996345043182373,-0.05859377235174179,-0.5078126788139343,9.726566314697266,-0.001953126396983862,0.001953126396983862,0.005859379190951586
7348,-0.026062030345201492,0.0026855487376451492,0.00030517601408064365,0.9996345043182373,-0.046875014901161194,-0.5078126788139343,9.761722564697266,-0.001953126396983862,0.001953126396983862,0.005859379190951586
7357,-0.026062030345201492,0.0026855487376451492,0.00030517601408064365,0.9996345043182373,-0.09765628725290298,-0.5078126788139343,9.738285064697266,-0.001953126396983862,0.001953126396983862,0.005859379190951586
7366,-0.026062030345201492,0.0026855487376451492,0.00030517601408064365,0.9996345043182373,-0.09765628725290298,-0.5078126788139343,9.738285064697266,0.0,-0.005859379190951586,0.0
7375,-0.026062030345201492,0.0026855487376451492,0.00030517601408064365,0.9996345043182373,-0.07812502980232239,-0.4960939288139343,9.753910064697266,0.0,-0.005859379190951586,0.0
7388,-0.026062030345201492,0.0026855487376451492,0.00030517601408064365,0.9996345043182373,-0.046875014901161194,-0.5078126788139343,9.761722564697266,0.0,-0.005859379190951586,0.0
7396,-0.026062030345201492,0.0026855487376451492,0.00030517601408064365,0.9996345043182373,-0.046875014901161194,-0.5078126788139343,9.761722564697266,0.005859379190951586,-0.007812505587935448,0.001953126396983862
7404,-0.026062030345201492,0.0026855487376451492,0.00030517601408064365,0.9996345043182373,-0.046875014901161194,-0.5078126788139343,9.761722564697266,0.009765632450580597,-0.005859379190951586,0.0
7417,-0.026062030345201492,0.0026855487376451492,0.00030517601408064365,0.9996345043182373,-0.046875014901161194,-0.4960939288139343,9.730472564697266,0.009765632450580597,-0.005859379190951586,0.0
7426,-0.026062030345201492,0.0026855487376451492,0.00030517601408064365,0.9996345043182373,-0.046875014901161194,-0.4960939288139343,9.730472564697266,0.0,0.003906252793967724,-0.001953126396983862
7434,-0.026062030345201492,0.0026855487376451492,0.00030517601408064365,0.9996345043182373,-0.046875014901161194,-0.4960939288139343,9.730472564697266,-0.003906252793967724,0.005859379190951586,0.0
7441,-0.026062030345201492,0.0026855487376451492,0.00030517601408064365,0.9996345043182373,-0.046875014901161194,-0.5078126788139343,9.726566314697266,-0.003906252793967724,0.005859379190951586,0.0
7450,-0.026062030345201492,0.0026855487376451492,0.00030517601408064365,0.9996345043182373,-0.046875014901161194,-0.5078126788139343,9.726566314697266,-0.005859379190951586,0.005859379190951586,0.003906252793967724
7458,-0.026062030345201492,0.0026855487376451492,0.00030517601408064365,0.9996345043182373,-0.046875014901161194,-0.5078126788139343,9.726566314697266,0.001953126396983862,0.0,0.007812505587935448
7479,-0.026062030345201492,0.0026855487376451492,0.00030517601408064365,0.9996345043182373,-0.046875014901161194,-0.5078126788139343,9.726566314697266,0.0,-0.001953126396983862,0.009765632450580597
7497,-0.026062030345201492,0.0026855487376451492,0.00030517601408064365,0.9996345043182373,-0.046875014901161194,-0.5078126788139343,9.726566314697266,0.0,-0.003906252793967724,-0.001953126396983862
7506,-0.026062030345201492,0.0026855487376451492,0.00030517601408064365,0.9996345043182373,-0.046875014901161194,-0.5078126788139343,9.726566314697266,-0.005859379190951586,-0.001953126396983862,-0.003906252793967724
7516,-0.026062030345201492,0.0026855487376451492,0.00030517601408064365,0.9996345043182373,-0.05859377235174179,-0.5078126788139343,9.734378814697266,-0.005859379190951586,-0.001953126396983862,-0.003906252793967724
7525,-0.026062030345201492,0.0026855487376451492,0.00030517601408064365,0.9996345043182373,-0.05859377235174179,-0.5156251788139343,9.750003814697266,-0.005859379190951586,-0.001953126396983862,-0.003906252793967724
7533,-0.026062030345201492,0.0026855487376451492,0.00030517601408064365,0.9996345043182373,-0.05859377235174179,-0.4804689288139343,9.710941314697266,-0.005859379190951586,-0.001953126396983862,-0.003906252793967724
7545,-0.026062030345201492,0.0026855487376451492,0.00030517601408064365,0.9996345043182373,-0.05859377235174179,-0.5156251788139343,9.710941314697266,-0.005859379190951586,-0.001953126396983862,-0.003906252793967724
7555,-0.026062030345201492,0.0026855487376451492,0.00030517601408064365,0.9996345043182373,-0.06640627235174179,-0.5156251788139343,9.722660064697266,-0.005859379190951586,-0.001953126396983862,-0.003906252793967724
7564,-0.026062030345201492,0.0026855487376451492,0.00030517601408064365,0.9996345043182373,-0.027343759313225746,-0.4960939288139343,9.722660064697266,-0.005859379190951586,-0.001953126396983862,-0.003906252793967724
7576,-0.026062030345201492,0.0026855487376451492,0.00030517601408064365,0.9996345043182373,-0.039062514901161194,-0.5156251788139343,9.734378814697266,-0.005859379190951586,-0.001953126396983862,-0.003906252793967724
7584,-0.026062030345201492,0.0026855487376451492,0.00030517601408064365,0.9996345043182373,-0.046875014901161194,-0.5351564288139343,9.718753814697266,-0.005859379190951586,-0.001953126396983862,-0.003906252793967724
7593,-0.026062030345201492,0.0026855487376451492,0.00030517601408064365,0.9996345043182373,-0.05859377235174179,-0.5156251788139343,9.726566314697266,-0.005859379190951586,-0.001953126396983862,-0.003906252793967724
7603,-0.026062030345201492,0.0026855487376451492,0.00030517601408064365,0.9996345043182373,-0.046875014901161194,-0.4882814288139343,9.726566314697266,-0.005859379190951586,-0.001953126396983862,-0.003906252793967724
7609,-0.026062030345201492,0.0026855487376451492,0.00030517601408064365,0.9996345043182373,-0.046875014901161194,-0.5156251788139343,9.726566314697266,-0.005859379190951586,-0.001953126396983862,-0.003906252793967724
7619,-0.026062030345201492,0.0026855487376451492,0.00030517601408064365,0.9996345043182373,-0.046875014901161194,-0.5156251788139343,9.726566314697266,-0.007812505587935448,0.0,-0.001953126396983862
7627,-0.026062030345201492,0.0026855487376451492,0.00030517601408064365,0.9996345043182373,-0.046875014901161194,-0.5156251788139343,9.726566314697266,-0.005859379190951586,0.003906252793967724,-0.003906252793967724
7636,-0.026062030345201492,0.0026855487376451492,0.00030517601408064365,0.9996345043182373,-0.046875014901161194,-0.5156251788139343,9.726566314697266,-0.007812505587935448,0.003906252793967724,-0.003906252793967724
7657,-0.026062030345201492,0.0026855487376451492,0.00030517601408064365,0.9996345043182373,-0.06640627235174179,-0.5078126788139343,9.687503814697266,-0.007812505587935448,0.003906252793967724,-0.003906252793967724
7675,-0.026062030345201492,0.0026855487376451492,0.00030517601408064365,0.9996345043182373,-0.06640627235174179,-0.5078126788139343,9.687503814697266,0.001953126396983862,-0.005859379190951586,0.001953126396983862
7685,-0.026062030345201492,0.0026855487376451492,0.00030517601408064365,0.9996345043182373,-0.06640627235174179,-0.5078126788139343,9.687503814697266,0.005859379190951586,-0.005859379190951586,0.003906252793967724
7694,-0.026062030345201492,0.0026855487376451492,0.00030517601408064365,0.9996345043182373,-0.05859377235174179,-0.5156251788139343,9.722660064697266,0.005859379190951586,-0.005859379190951586,0.003906252793967724
7704,-0.026062030345201492,0.0026855487376451492,0.00030517601408064365,0.9996345043182373,-0.06640627235174179,-0.4960939288139343,9.718753814697266,0.005859379190951586,-0.005859379190951586,0.003906252793967724
7712,-0.026062030345201492,0.0026855487376451492,0.00030517601408064365,0.9996345043182373,-0.06640627235174179,-0.4960939288139343,9.718753814697266,0.003906252793967724,0.0,-0.001953126396983862
7721,-0.026062030345201492,0.0026855487376451492,0.00030517601408064365,0.9996345043182373,-0.05859377235174179,-0.4882814288139343,9.734378814697266,0.003906252793967724,0.0,-0.001953126396983862
7734,-0.026062030345201492,0.0026855487376451492,0.00030517601408064365,0.9996345043182373,-0.05859377235174179,-0.4687501788139343,9.710941314697266,0.003906252793967724,0.0,-0.001953126396983862
7742,-0.026062030345201492,0.0026855487376451492,0.00030517601408064365,0.9996345043182373,-0.05859377235174179,-0.4687501788139343,9.710941314697266,0.003906252793967724,0.0,0.003906252793967724
7748,-0.026062030345201492,0.0026855487376451492,0.00030517601408064365,0.9996345043182373,-0.039062514901161194,-0.5078126788139343,9.726566314697266,0.003906252793967724,0.0,0.003906252793967724
7757,-0.026306170970201492,0.002868654439225793,0.00012207039981149137,0.9996345043182373,-0.039062514901161194,-0.5078126788139343,9.726566314697266,0.003906252793967724,0.0,0.003906252793967724
7767,-0.026306170970201492,0.002868654439225793,0.00012207039981149137,0.9996345043182373,-0.039062514901161194,-0.5078126788139343,9.726566314697266,-0.001953126396983862,0.003906252793967724,-0.001953126396983862
7776,-0.026306170970201492,0.002868654439225793,0.00012207039981149137,0.9996345043182373,-0.039062514901161194,-0.5078126788139343,9.726566314697266,0.0,0.0,0.0
7795,-0.026306170970201492,0.002868654439225793,0.00012207039981149137,0.9996345043182373,-0.06640627235174179,-0.5156251788139343,9.726566314697266,0.0,0.0,0.0
7815,-0.026306170970201492,0.002868654439225793,0.00012207039981149137,0.9996345043182373,-0.06640627235174179,-0.5156251788139343,9.726566314697266,0.0,0.0,0.0
7824,-0.026306170970201492,0.002868654439225793,0.00012207039981149137,0.9996345043182373,-0.06640627235174179,-0.5156251788139343,9.726566314697266,0.0,0.0,0.0
7832,-0.026306170970201492,0.002868654439225793,0.00012207039981149137,0.9996345043182373,-0.06640627235174179,-0.4960939288139343,9.714847564697266,0.0,0.0,0.0
7841,-0.026306170970201492,0.002868654439225793,0.00012207039981149137,0.9996345043182373,-0.027343759313225746,-0.5078126788139343,9.718753814697266,0.0,0.0,0.0
7851,-0.026306170970201492,0.002868654439225793,0.00012207039981149137,0.9996345043182373,-0.07812502980232239,-0.5273439288139343,9.750003814697266,0.0,0.0,0.0
7864,-0.026306170970201492,0.002868654439225793,0.00012207039981149137,0.9996345043182373,-0.06640627235174179,-0.5078126788139343,9.722660064697266,0.0,0.0,0.0
7873,-0.026306170970201492,0.002868654439225793,0.00012207039981149137,0.9996345043182373,-0.06640627235174179,-0.5078126788139343,9.722660064697266,0.0,0.0,0.0
7883,-0.026306170970201492,0.002868654439225793,0.00012207039981149137,0.9996345043182373,-0.06640627235174179,-0.5078126788139343,9.722660064697266,0.0,0.0,0.0
7891,-0.026306170970201492,0.002868654439225793,0.00012207039981149137,0.9996345043182373,-0.06640627235174179,-0.5078126788139343,9.722660064697266,0.0,0.0,0.0
7901,-0.026306170970201492,0.002868654439225793,0.00012207039981149137,0.9996345043182373,-0.046875014901161194,-0.4960939288139343,9.738285064697266,0.0,0.0,0.0
7910,-0.026306170970201492,0.002868654439225793,0.00012207039981149137,0.9996345043182373,-0.039062514901161194,-0.5078126788139343,9.710941314697266,0.0,0.0,0.0
7922,-0.026306170970201492,0.002868654439225793,0.00012207039981149137,0.9996345043182373,-0.039062514901161194,-0.4960939288139343,9.738285064697266,0.0,0.0,0.0
7930,-0.026306170970201492,0.002868654439225793,0.00012207039981149137,0.9996345043182373,-0.046875014901161194,-0.5156251788139343,9.710941314697266,0.0,0.0,0.0
7940,-0.026306170970201492,0.002868654439225793,0.00012207039981149137,0.9996345043182373,-0.027343759313225746,-0.5273439288139343,9.738285064697266,0.0,0.0,0.0
7952,-0.026306170970201492,0.002868654439225793,0.00012207039981149137,0.9996345043182373,-0.05859377235174179,-0.5156251788139343,9.769535064697266,0.0,0.0,0.0
7961,-0.026306170970201492,0.002868654439225793,0.00012207039981149137,0.9996345043182373,-0.05859377235174179,-0.5156251788139343,9.769535064697266,0.0,0.0,0.0
7969,-0.026306170970201492,0.002868654439225793,0.00012207039981149137,0.9996345043182373,-0.039062514901161194,-0.5351564288139343,9.738285064697266,0.0,0.0,0.0
7975,-0.026306170970201492,0.002868654439225793,0.00012207039981149137,0.9996345043182373,-0.046875014901161194,-0.4960939288139343,9.765628814697266,0.0,0.0,0.0
7985,-0.026306170970201492,0.002868654439225793,0.00012207039981149137,0.9996345043182373,-0.046875014901161194,-0.4960939288139343,9.765628814697266,0.0,0.0,0.0
7994,-0.026306170970201492,0.002868654439225793,0.00012207039981149137,0.9996345043182373,-0.046875014901161194,-0.4960939288139343,9.765628814697266,0.0,0.0,0.0
8024,-0.026306170970201492,0.002868654439225793,0.00012207039981149137,0.9996345043182373,-0.046875014901161194,-0.4960939288139343,9.765628814697266,0.0,0.0,0.0
8053,-0.026306170970201492,0.002868654439225793,0.00012207039981149137,0.9996345043182373,-0.046875014901161194,-0.4960939288139343,9.765628814697266,0.0,0.0,0.0
8082,-0.026306170970201492,0.002868654439225793,0.00012207039981149137,0.9996345043182373,-0.046875014901161194,-0.4960939288139343,9.765628814697266,0.0,0.0,0.0
8102,-0.026306170970201492,0.002868654439225793,0.00012207039981149137,0.9996345043182373,-0.046875014901161194,-0.4960939288139343,9.765628814697266,0.0,0.0,0.0
8121,-0.026306170970201492,0.002868654439225793,0.00012207039981149137,0.9996345043182373,-0.046875014901161194,-0.4960939288139343,9.765628814697266,0.0,0.0,0.0
8130,-0.026306170970201492,0.002868654439225793,0.00012207039981149137,0.9996345043182373,-0.046875014901161194,-0.4960939288139343,9.765628814697266,0.0,0.0,0.0
8139,-0.026306170970201492,0.002868654439225793,0.00012207039981149137,0.9996345043182373,-0.039062514901161194,-0.5156251788139343,9.750003814697266,0.0,0.0,0.0
8148,-0.026306170970201492,0.002868654439225793,0.00012207039981149137,0.9996345043182373,-0.046875014901161194,-0.5273439288139343,9.710941314697266,0.0,0.0,0.0
8158,-0.026306170970201492,0.002868654439225793,0.00012207039981149137,0.9996345043182373,-0.06640627235174179,-0.4882814288139343,9.707035064697266,0.0,0.0,0.0
8164,-0.026306170970201492,0.002868654439225793,0.00012207039981149137,0.9996345043182373,-0.039062514901161194,-0.5156251788139343,9.726566314697266,0.0,0.0,0.0
8173,-0.026245135813951492,0.0027465838938951492,0.00018310559971723706,0.9996345043182373,-0.039062514901161194,-0.5156251788139343,9.726566314697266,0.0,0.0,0.0
8182,-0.026245135813951492,0.0027465838938951492,0.00018310559971723706,0.9996345043182373,-0.039062514901161194,-0.5156251788139343,9.726566314697266,0.0,0.0,0.0
8190,-0.026245135813951492,0.0027465838938951492,0.00018310559971723706,0.9996345043182373,-0.039062514901161194,-0.5156251788139343,9.726566314697266,0.0,0.0,0.0
8200,-0.026245135813951492,0.0027465838938951492,0.00018310559971723706,0.9996345043182373,-0.039062514901161194,-0.5156251788139343,9.726566314697266,0.0,0.0,0.0
8210,-0.026245135813951492,0.0027465838938951492,0.00018310559971723706,0.9996345043182373,-0.046875014901161194,-0.4882814288139343,9.710941314697266,0.0,0.0,0.0
8219,-0.026245135813951492,0.0027465838938951492,0.00018310559971723706,0.9996345043182373,-0.039062514901161194,-0.5351564288139343,9.738285064697266,0.0,0.0,0.0
8228,-0.026245135813951492,0.0027465838938951492,0.00018310559971723706,0.9996345043182373,-0.039062514901161194,-0.5351564288139343,9.738285064697266,0.0,0.0,0.0
8237,-0.026245135813951492,0.0027465838938951492,0.00018310559971723706,0.9996345043182373,-0.039062514901161194,-0.5351564288139343,9.738285064697266,0.0,0.0,0.0
8245,-0.026245135813951492,0.0027465838938951492,0.00018310559971723706,0.9996345043182373,-0.039062514901161194,-0.5468751788139343,9.753910064697266,0.0,0.0,0.0
8253,-0.026184100657701492,0.0026855487376451492,0.00018310559971723706,0.9996345043182373,-0.039062514901161194,-0.5468751788139343,9.753910064697266,0.0,0.0,0.0
8261,-0.026184100657701492,0.0026855487376451492,0.00018310559971723706,0.9996345043182373,-0.039062514901161194,-0.5468751788139343,9.753910064697266,0.0,0.0,0.0
8270,-0.026184100657701492,0.0026855487376451492,0.00018310559971723706,0.9996345043182373,-0.039062514901161194,-0.5468751788139343,9.753910064697266,0.0,0.0,0.0
8290,-0.026184100657701492,0.0026855487376451492,0.00018310559971723706,0.9996345043182373,-0.046875014901161194,-0.4960939288139343,9.730472564697266,0.0,0.0,0.0
8310,-0.026184100657701492,0.0026855487376451492,0.00018310559971723706,0.9996345043182373,-0.046875014901161194,-0.4960939288139343,9.730472564697266,0.0,0.0,0.0
8329,-0.026184100657701492,0.0026855487376451492,0.00018310559971723706,0.9996345043182373,-0.046875014901161194,-0.4960939288139343,9.730472564697266,0.0,0.0,0.0
8338,-0.026184100657701492,0.0026855487376451492,0.00018310559971723706,0.9996345043182373,-0.046875014901161194,-0.4960939288139343,9.730472564697266,0.0,0.0,0.0
8347,-0.026184100657701492,0.0026855487376451492,0.00018310559971723706,0.9996345043182373,-0.06640627235174179,-0.5156251788139343,9.722660064697266,0.0,0.0,0.0
8356,-0.026184100657701492,0.0026855487376451492,0.00018310559971723706,0.9996345043182373,-0.039062514901161194,-0.5156251788139343,9.734378814697266,0.0,0.0,0.0
8366,-0.026184100657701492,0.0026855487376451492,0.00018310559971723706,0.9996345043182373,-0.046875014901161194,-0.5156251788139343,9.734378814697266,0.0,0.0,0.0
8377,-0.026184100657701492,0.0026855487376451492,0.00018310559971723706,0.9996345043182373,-0.05859377235174179,-0.5273439288139343,9.734378814697266,0.0,0.0,0.0
8386,-0.026184100657701492,0.0026855487376451492,0.00018310559971723706,0.9996345043182373,-0.05859377235174179,-0.4960939288139343,9.714847564697266,0.0,0.0,0.0
8395,-0.026184100657701492,0.0026855487376451492,0.00018310559971723706,0.9996345043182373,-0.027343759313225746,-0.5351564288139343,9.750003814697266,0.0,0.0,0.0
8408,-0.026184100657701492,0.0026855487376451492,0.00018310559971723706,0.9996345043182373,-0.046875014901161194,-0.5468751788139343,9.753910064697266,0.0,0.0,0.0
8417,-0.026184100657701492,0.0026855487376451492,0.00018310559971723706,0.9996345043182373,-0.06640627235174179,-0.4960939288139343,9.765628814697266,0.0,0.0,0.0
8425,-0.026184100657701492,0.0026855487376451492,0.00018310559971723706,0.9996345043182373,-0.039062514901161194,-0.5156251788139343,9.734378814697266,0.0,0.0,0.0
8431,-0.026184100657701492,0.0026855487376451492,0.00018310559971723706,0.9996345043182373,-0.046875014901161194,-0.5078126788139343,9.722660064697266,0.0,0.0,0.0
8440,-0.026184100657701492,0.0026855487376451492,0.00018310559971723706,0.9996345043182373,-0.046875014901161194,-0.5078126788139343,9.722660064697266,0.0,0.0,0.0
8449,-0.026184100657701492,0.0026855487376451492,0.00018310559971723706,0.9996345043182373,-0.046875014901161194,-0.5078126788139343,9.722660064697266,0.0,0.0,0.0
8469,-0.026184100657701492,0.0026855487376451492,0.00018310559971723706,0.9996345043182373,-0.046875014901161194,-0.5078126788139343,9.722660064697266,0.0,0.0,0.0
8499,-0.026184100657701492,0.0026855487376451492,0.00018310559971723706,0.9996345043182373,-0.046875014901161194,-0.5078126788139343,9.722660064697266,0.0,0.0,0.0
8518,-0.026184100657701492,0.0026855487376451492,0.00018310559971723706,0.9996345043182373,-0.046875014901161194,-0.5078126788139343,9.722660064697266,0.0,0.0,0.0
8537,-0.026184100657701492,0.0026855487376451492,0.00018310559971723706,0.9996345043182373,-0.046875014901161194,-0.5078126788139343,9.722660064697266,0.0,0.0,0.0
8546,-0.026184100657701492,0.0026855487376451492,0.00018310559971723706,0.9996345043182373,-0.046875014901161194,-0.5078126788139343,9.722660064697266,0.0,0.0,0.0
8555,-0.026184100657701492,0.0026855487376451492,0.00018310559971723706,0.9996345043182373,-0.05859377235174179,-0.5078126788139343,9.750003814697266,0.0,0.0,0.0
8564,-0.026184100657701492,0.0026855487376451492,0.00018310559971723706,0.9996345043182373,-0.046875014901161194,-0.5078126788139343,9.769535064697266,0.0,0.0,0.0
8573,-0.026184100657701492,0.0026855487376451492,0.00018310559971723706,0.9996345043182373,-0.027343759313225746,-0.4960939288139343,9.769535064697266,0.0,0.0,0.0
8585,-0.026184100657701492,0.0026855487376451492,0.00018310559971723706,0.9996345043182373,-0.019531257450580597,-0.5078126788139343,9.722660064697266,0.0,0.0,0.0
8594,-0.026184100657701492,0.0026855487376451492,0.00018310559971723706,0.9996345043182373,-0.027343759313225746,-0.5351564288139343,9.769535064697266,0.0,0.0,0.0
8603,-0.026184100657701492,0.0026855487376451492,0.00018310559971723706,0.9996345043182373,-0.07812502980232239,-0.5156251788139343,9.734378814697266,0.0,0.0,0.0
8615,-0.026184100657701492,0.0026855487376451492,0.00018310559971723706,0.9996345043182373,-0.06640627235174179,-0.5078126788139343,9.726566314697266,0.0,0.0,0.0
8625,-0.026184100657701492,0.0026855487376451492,0.00018310559971723706,0.9996345043182373,-0.046875014901161194,-0.4882814288139343,9.726566314697266,0.0,0.0,0.0
8633,-0.026184100657701492,0.0026855487376451492,0.00018310559971723706,0.9996345043182373,-0.06640627235174179,-0.4960939288139343,9.730472564697266,0.0,0.0,0.0
8642,-0.026184100657701492,0.0026855487376451492,0.00018310559971723706,0.9996345043182373,-0.05859377235174179,-0.5078126788139343,9.734378814697266,0.0,0.0,0.0
8648,-0.026184100657701492,0.0026855487376451492,0.00018310559971723706,0.9996345043182373,-0.05859377235174179,-0.4960939288139343,9.753910064697266,0.0,0.0,0.0
8658,-0.026184100657701492,0.0026855487376451492,0.00018310559971723706,0.9996345043182373,-0.05859377235174179,-0.4960939288139343,9.753910064697266,0.0,0.0,0.0
8668,-0.026184100657701492,0.0026855487376451492,0.00018310559971723706,0.9996345043182373,-0.05859377235174179,-0.4960939288139343,9.753910064697266,0.0,0.0,0.0
8676,-0.026184100657701492,0.0026855487376451492,0.00018310559971723706,0.9996345043182373,-0.05859377235174179,-0.4960939288139343,9.753910064697266,0.0,0.0,0.0
8685,-0.026184100657701492,0.0026855487376451492,0.00018310559971723706,0.9996345043182373,-0.05859377235174179,-0.4960939288139343,9.753910064697266,0.0,0.0,0.0
8694,-0.026184100657701492,0.0026855487376451492,0.00018310559971723706,0.9996345043182373,-0.046875014901161194,-0.5078126788139343,9.769535064697266,0.0,0.0,0.0
8705,-0.026184100657701492,0.0026855487376451492,0.00018310559971723706,0.9996345043182373,-0.05859377235174179,-0.5156251788139343,9.710941314697266,0.0,0.0,0.0
8714,-0.026184100657701492,0.0026855487376451492,0.00018310559971723706,0.9996345043182373,-0.05859377235174179,-0.5156251788139343,9.710941314697266,0.0,0.0,0.0
8723,-0.026184100657701492,0.0026855487376451492,0.00018310559971723706,0.9996345043182373,-0.05859377235174179,-0.5156251788139343,9.710941314697266,0.0,0.0,0.0
8728,-0.026184100657701492,0.0026855487376451492,0.00018310559971723706,0.9996345043182373,-0.05859377235174179,-0.5156251788139343,9.722660064697266,0.0,0.0,0.0
8737,-0.026184100657701492,0.0026855487376451492,0.00018310559971723706,0.9996345043182373,-0.05859377235174179,-0.5156251788139343,9.722660064697266,0.0,0.0,0.0
8747,-0.026184100657701492,0.0026855487376451492,0.00018310559971723706,0.9996345043182373,-0.05859377235174179,-0.5156251788139343,9.722660064697266,0.0,0.0,0.0
8755,-0.026184100657701492,0.0026855487376451492,0.00018310559971723706,0.9996345043182373,-0.05859377235174179,-0.5156251788139343,9.722660064697266,0.0,0.0,0.0
8765,-0.026184100657701492,0.0026855487376451492,0.00018310559971723706,0.9996345043182373,-0.027343759313225746,-0.5078126788139343,9.730472564697266,0.0,0.0,0.0
8775,-0.026184100657701492,0.0026855487376451492,0.00018310559971723706,0.9996345043182373,-0.05859377235174179,-0.4882814288139343,9.761722564697266,0.0,0.0,0.0
8784,-0.026184100657701492,0.0026855487376451492,0.00018310559971723706,0.9996345043182373,-0.05859377235174179,-0.4882814288139343,9.761722564697266,0.0,0.0,0.0
8794,-0.026184100657701492,0.0026855487376451492,0.00018310559971723706,0.9996345043182373,-0.05859377235174179,-0.4882814288139343,9.761722564697266,0.0,0.0,0.0
8803,-0.026184100657701492,0.0026855487376451492,0.00018310559971723706,0.9996345043182373,-0.039062514901161194,-0.4882814288139343,9.726566314697266,0.0,0.0,0.0
8812,-0.026184100657701492,0.0026855487376451492,0.00018310559971723706,0.9996345043182373,-0.039062514901161194,-0.5273439288139343,9.750003814697266,0.0,0.0,0.0
8820,-0.026184100657701492,0.0026855487376451492,0.00018310559971723706,0.9996345043182373,-0.06640627235174179,-0.5078126788139343,9.722660064697266,0.0,0.0,0.0
8835,-0.026184100657701492,0.0026855487376451492,0.00018310559971723706,0.9996345043182373,-0.06640627235174179,-0.4960939288139343,9.703128814697266,0.0,0.0,0.0
8844,-0.026184100657701492,0.0026855487376451492,0.00018310559971723706,0.9996345043182373,-0.06640627235174179,-0.4960939288139343,9.703128814697266,0.0,0.0,0.0
8853,-0.026184100657701492,0.0026855487376451492,0.00018310559971723706,0.9996345043182373,-0.06640627235174179,-0.4960939288139343,9.703128814697266,0.0,0.0,0.0
8862,-0.026184100657701492,0.0026855487376451492,0.00018310559971723706,0.9996345043182373,-0.06640627235174179,-0.4960939288139343,9.703128814697266,0.0,0.0,0.0
8871,-0.026184100657701492,0.0026855487376451492,0.00018310559971723706,0.9996345043182373,-0.039062514901161194,-0.5078126788139343,9.722660064697266,0.0,0.0,0.0
8880,-0.026184100657701492,0.0026855487376451492,0.00018310559971723706,0.9996345043182373,-0.046875014901161194,-0.4882814288139343,9.722660064697266,0.0,0.0,0.0
8892,-0.026184100657701492,0.0026855487376451492,0.00018310559971723706,0.9996345043182373,-0.05859377235174179,-0.5351564288139343,9.738285064697266,0.0,0.0,0.0
8901,-0.026184100657701492,0.0026855487376451492,0.00018310559971723706,0.9996345043182373,-0.027343759313225746,-0.5156251788139343,9.730472564697266,0.0,0.0,0.0
8910,-0.026184100657701492,0.0026855487376451492,0.00018310559971723706,0.9996345043182373,-0.039062514901161194,-0.5156251788139343,9.710941314697266,0.0,0.0,0.0
8918,-0.026184100657701492,0.0026855487376451492,0.00018310559971723706,0.9996345043182373,-0.039062514901161194,-0.5156251788139343,9.722660064697266,0.0,0.0,0.0
8925,-0.026123065501451492,0.0025634784251451492,0.00018310559971723706,0.9996345043182373,-0.039062514901161194,-0.5156251788139343,9.722660064697266,0.0,0.0,0.0
8934,-0.026123065501451492,0.0025634784251451492,0.00018310559971723706,0.9996345043182373,-0.039062514901161194,-0.5156251788139343,9.722660064697266,0.0,0.0,0.0
8954,-0.026123065501451492,0.0025634784251451492,0.00018310559971723706,0.9996345043182373,-0.039062514901161194,-0.5156251788139343,9.722660064697266,0.0,0.0,0.0
8964,-0.026123065501451492,0.0025634784251451492,0.00018310559971723706,0.9996345043182373,-0.039062514901161194,-0.5156251788139343,9.722660064697266,0.0,0.0,0.0
8973,-0.026123065501451492,0.0025634784251451492,0.00018310559971723706,0.9996345043182373,-0.027343759313225746,-0.5078126788139343,9.730472564697266,0.0,0.0,0.0
8983,-0.026123065501451492,0.0025634784251451492,0.00018310559971723706,0.9996345043182373,-0.027343759313225746,-0.5078126788139343,9.714847564697266,0.0,0.0,0.0
8992,-0.026123065501451492,0.0025634784251451492,0.00018310559971723706,0.9996345043182373,-0.027343759313225746,-0.5078126788139343,9.714847564697266,0.0,0.0,0.0
9012,-0.026123065501451492,0.0025634784251451492,0.00018310559971723706,0.9996345043182373,-0.046875014901161194,-0.5078126788139343,9.726566314697266,0.0,0.0,0.0
9022,-0.026123065501451492,0.0025634784251451492,0.00018310559971723706,0.9996345043182373,-0.046875014901161194,-0.5078126788139343,9.726566314697266,0.0,0.0,0.0
9030,-0.026123065501451492,0.0025634784251451492,0.00018310559971723706,0.9996345043182373,-0.046875014901161194,-0.5078126788139343,9.726566314697266,0.0,0.0,0.0
9039,-0.026123065501451492,0.0025634784251451492,0.00018310559971723706,0.9996345043182373,-0.039062514901161194,-0.5273439288139343,9.734378814697266,0.0,0.0,0.0
9049,-0.026123065501451492,0.0025634784251451492,0.00018310559971723706,0.9996345043182373,-0.046875014901161194,-0.5078126788139343,9.734378814697266,0.0,0.0,0.0
9061,-0.026123065501451492,0.0025634784251451492,0.00018310559971723706,0.9996345043182373,-0.046875014901161194,-0.5468751788139343,9.718753814697266,0.0,0.0,0.0
9069,-0.026123065501451492,0.0025634784251451492,0.00018310559971723706,0.9996345043182373,-0.046875014901161194,-0.5468751788139343,9.718753814697266,0.0,0.0,0.0
9078,-0.026123065501451492,0.0025634784251451492,0.00018310559971723706,0.9996345043182373,-0.06640627235174179,-0.5156251788139343,9.722660064697266,0.0,0.0,0.0
9091,-0.026123065501451492,0.0025634784251451492,0.00018310559971723706,0.9996345043182373,-0.046875014901161194,-0.5156251788139343,9.734378814697266,0.0,0.0,0.0
9100,-0.026123065501451492,0.0025634784251451492,0.00018310559971723706,0.9996345043182373,-0.046875014901161194,-0.5156251788139343,9.734378814697266,0.0,0.0,0.0
9108,-0.026123065501451492,0.0025634784251451492,0.00018310559971723706,0.9996345043182373,-0.05859377235174179,-0.5156251788139343,9.750003814697266,0.0,0.0,0.0
9117,-0.026123065501451492,0.0025634784251451492,0.00018310559971723706,0.9996345043182373,-0.039062514901161194,-0.5156251788139343,9.726566314697266,0.0,0.0,0.0
9123,-0.026123065501451492,0.0025634784251451492,0.00018310559971723706,0.9996345043182373,-0.05859377235174179,-0.4882814288139343,9.722660064697266,0.0,0.0,0.0
9133,-0.026123065501451492,0.0025634784251451492,0.00018310559971723706,0.9996345043182373,-0.05859377235174179,-0.4882814288139343,9.722660064697266,0.0,0.0,0.0
9142,-0.026123065501451492,0.0025634784251451492,0.00018310559971723706,0.9996345043182373,-0.05859377235174179,-0.4882814288139343,9.722660064697266,0.0,0.0,0.0
9152,-0.026123065501451492,0.0025634784251451492,0.00018310559971723706,0.9996345043182373,-0.027343759313225746,-0.5156251788139343,9.765628814697266,0.0,0.0,0.0
9171,-0.026123065501451492,0.0025634784251451492,0.00018310559971723706,0.9996345043182373,-0.027343759313225746,-0.5156251788139343,9.765628814697266,0.0,0.0,0.0
9190,-0.026123065501451492,0.0025634784251451492,0.00018310559971723706,0.9996345043182373,-0.027343759313225746,-0.5273439288139343,9.730472564697266,0.0,0.0,0.0
9200,-0.026123065501451492,0.0025634784251451492,0.00018310559971723706,0.9996345043182373,-0.027343759313225746,-0.5273439288139343,9.730472564697266,0.0,0.0,0.0
9208,-0.026123065501451492,0.0025634784251451492,0.00018310559971723706,0.9996345043182373,-0.027343759313225746,-0.5273439288139343,9.730472564697266,0.0,0.0,0.0
9218,-0.026123065501451492,0.0025634784251451492,0.00018310559971723706,0.9996345043182373,-0.05859377235174179,-0.5156251788139343,9.750003814697266,0.0,0.0,0.0
9224,-0.026123065501451492,0.0025634784251451492,0.00018310559971723706,0.9996345043182373,-0.05859377235174179,-0.4882814288139343,9.726566314697266,0.0,0.0,0.0
9233,-0.026123065501451492,0.0025634784251451492,0.00018310559971723706,0.9996345043182373,-0.05859377235174179,-0.4882814288139343,9.726566314697266,0.0,0.0,0.0
9241,-0.026123065501451492,0.0025634784251451492,0.00018310559971723706,0.9996345043182373,-0.05859377235174179,-0.4882814288139343,9.726566314697266,0.0,0.0,0.0
9251,-0.026123065501451492,0.0025634784251451492,0.00018310559971723706,0.9996345043182373,-0.06640627235174179,-0.5273439288139343,9.761722564697266,0.0,0.0,0.0
9261,-0.026123065501451492,0.0025634784251451492,0.00018310559971723706,0.9996345043182373,-0.06640627235174179,-0.5273439288139343,9.761722564697266,0.0,0.0,0.0
9270,-0.026123065501451492,0.0025634784251451492,0.00018310559971723706,0.9996345043182373,-0.06640627235174179,-0.5273439288139343,9.761722564697266,0.0,0.0,0.0
9289,-0.026123065501451492,0.0025634784251451492,0.00018310559971723706,0.9996345043182373,-0.039062514901161194,-0.5156251788139343,9.726566314697266,0.0,0.0,0.0
9298,-0.026123065501451492,0.0025634784251451492,0.00018310559971723706,0.9996345043182373,-0.039062514901161194,-0.5156251788139343,9.726566314697266,0.0,0.0,0.0
9308,-0.026123065501451492,0.0025634784251451492,0.00018310559971723706,0.9996345043182373,-0.039062514901161194,-0.5156251788139343,9.726566314697266,0.0,0.0,0.0
9317,-0.026123065501451492,0.0025634784251451492,0.00018310559971723706,0.9996345043182373,-0.046875014901161194,-0.5156251788139343,9.761722564697266,0.0,0.0,0.0
9325,-0.026123065501451492,0.0025634784251451492,0.00018310559971723706,0.9996345043182373,-0.027343759313225746,-0.5078126788139343,9.738285064697266,0.0,0.0,0.0
9337,-0.026123065501451492,0.0025634784251451492,0.00018310559971723706,0.9996345043182373,-0.039062514901161194,-0.5156251788139343,9.707035064697266,0.0,0.0,0.0
9347,-0.026123065501451492,0.0025634784251451492,0.00018310559971723706,0.9996345043182373,-0.039062514901161194,-0.5156251788139343,9.707035064697266,0.0,0.0,0.0
9356,-0.026123065501451492,0.0025634784251451492,0.00018310559971723706,0.9996345043182373,-0.039062514901161194,-0.5468751788139343,9.730472564697266,0.0,0.0,0.0
9363,-0.026123065501451492,0.0025634784251451492,0.00018310559971723706,0.9996345043182373,-0.027343759313225746,-0.5273439288139343,9.738285064697266,0.0,0.0,0.0
9371,-0.026123065501451492,0.0025024432688951492,0.00018310559971723706,0.9996345043182373,-0.027343759313225746,-0.5273439288139343,9.738285064697266,0.0,0.0,0.0
9379,-0.026123065501451492,0.0025024432688951492,0.00018310559971723706,0.9996345043182373,-0.027343759313225746,-0.5273439288139343,9.738285064697266,0.0,0.0,0.0
9400,-0.026123065501451492,0.0025024432688951492,0.00018310559971723706,0.9996345043182373,-0.027343759313225746,-0.5273439288139343,9.738285064697266,0.0,0.0,0.0
9430,-0.026123065501451492,0.0025024432688951492,0.00018310559971723706,0.9996345043182373,-0.027343759313225746,-0.5273439288139343,9.738285064697266,0.0,0.0,0.0
9449,-0.026123065501451492,0.0025024432688951492,0.00018310559971723706,0.9996345043182373,-0.027343759313225746,-0.5273439288139343,9.738285064697266,0.0,0.0,0.0
9467,-0.026123065501451492,0.0025024432688951492,0.00018310559971723706,0.9996345043182373,-0.039062514901161194,-0.5156251788139343,9.734378814697266,0.0,0.0,0.0
9477,-0.026123065501451492,0.0025024432688951492,0.00018310559971723706,0.9996345043182373,-0.039062514901161194,-0.5156251788139343,9.734378814697266,0.0,0.0,0.0
9486,-0.026123065501451492,0.0025024432688951492,0.00018310559971723706,0.9996345043182373,-0.039062514901161194,-0.5156251788139343,9.734378814697266,0.0,0.0,0.0
9495,-0.026123065501451492,0.0025024432688951492,0.00018310559971723706,0.9996345043182373,-0.05859377235174179,-0.5351564288139343,9.753910064697266,0.0,0.0,0.0
9503,-0.026123065501451492,0.0025024432688951492,0.00018310559971723706,0.9996345043182373,-0.06640627235174179,-0.5156251788139343,9.750003814697266,0.0,0.0,0.0
9516,-0.026123065501451492,0.0025024432688951492,0.00018310559971723706,0.9996345043182373,-0.05859377235174179,-0.5351564288139343,9.718753814697266,0.0,0.0,0.0
9525,-0.026123065501451492,0.0025024432688951492,0.00018310559971723706,0.9996345043182373,-0.046875014901161194,-0.4882814288139343,9.750003814697266,0.0,0.0,0.0
9534,-0.026123065501451492,0.0025024432688951492,0.00018310559971723706,0.9996345043182373,-0.08593752980232239,-0.4960939288139343,9.734378814697266,0.0,0.0,0.0
9546,-0.026123065501451492,0.0025024432688951492,0.00018310559971723706,0.9996345043182373,0.0,-0.5273439288139343,9.722660064697266,0.0,0.0,0.0
9554,-0.026123065501451492,0.0025024432688951492,0.00018310559971723706,0.9996345043182373,0.0,-0.5273439288139343,9.722660064697266,0.0,0.0,0.0
9564,-0.026123065501451492,0.0025024432688951492,0.00018310559971723706,0.9996345043182373,-0.06640627235174179,-0.5468751788139343,9.757816314697266,0.0,0.0,0.0
9576,-0.026123065501451492,0.0025024432688951492,0.00018310559971723706,0.9996345043182373,-0.06640627235174179,-0.5078126788139343,9.726566314697266,0.0,0.0,0.0
9584,-0.026123065501451492,0.0025024432688951492,0.00018310559971723706,0.9996345043182373,-0.06640627235174179,-0.5078126788139343,9.726566314697266,0.0,0.0,0.0
9593,-0.026123065501451492,0.0025024432688951492,0.00018310559971723706,0.9996345043182373,-0.046875014901161194,-0.5351564288139343,9.753910064697266,0.0,0.0,0.0
9601,-0.026123065501451492,0.0025024432688951492,0.00018310559971723706,0.9996345043182373,-0.06640627235174179,-0.5273439288139343,9.769535064697266,0.0,0.0,0.0
9609,-0.026184100657701492,0.0024414081126451492,0.00018310559971723706,0.9996345043182373,-0.06640627235174179,-0.5273439288139343,9.769535064697266,0.0,0.0,0.0
9617,-0.026184100657701492,0.0024414081126451492,0.00018310559971723706,0.9996345043182373,-0.06640627235174179,-0.5273439288139343,9.769535064697266,0.0,0.0,0.0
9648,-0.026184100657701492,0.0024414081126451492,0.00018310559971723706,0.9996345043182373,-0.06640627235174179,-0.5273439288139343,9.769535064697266,0.0,0.0,0.0
9656,-0.026184100657701492,0.0024414081126451492,0.00018310559971723706,0.9996345043182373,-0.06640627235174179,-0.5273439288139343,9.769535064697266,0.0,0.0,0.0
9665,-0.026184100657701492,0.0024414081126451492,0.00018310559971723706,0.9996345043182373,-0.039062514901161194,-0.5078126788139343,9.726566314697266,0.0,0.0,0.0
9676,-0.026184100657701492,0.0024414081126451492,0.00018310559971723706,0.9996345043182373,-0.05859377235174179,-0.5273439288139343,9.761722564697266,0.0,0.0,0.0
9686,-0.026184100657701492,0.0024414081126451492,0.00018310559971723706,0.9996345043182373,-0.05859377235174179,-0.5273439288139343,9.761722564697266,0.0,0.0,0.0
9695,-0.026184100657701492,0.0024414081126451492,0.00018310559971723706,0.9996345043182373,-0.05859377235174179,-0.5273439288139343,9.761722564697266,0.0,0.0,0.0
9704,-0.026184100657701492,0.0024414081126451492,0.00018310559971723706,0.9996345043182373,-0.039062514901161194,-0.4882814288139343,9.734378814697266,0.0,0.0,0.0
9713,-0.026184100657701492,0.0024414081126451492,0.00018310559971723706,0.9996345043182373,-0.05859377235174179,-0.5351564288139343,9.738285064697266,0.0,0.0,0.0
9721,-0.026184100657701492,0.0024414081126451492,0.00018310559971723706,0.9996345043182373,-0.05859377235174179,-0.5351564288139343,9.738285064697266,0.0,0.0,0.0
9731,-0.026184100657701492,0.0024414081126451492,0.00018310559971723706,0.9996345043182373,-0.027343759313225746,-0.5156251788139343,9.730472564697266,0.0,0.0,0.0
9738,-0.026245135813951492,0.0025024432688951492,0.00018310559971723706,0.9996345043182373,-0.027343759313225746,-0.5156251788139343,9.730472564697266,0.0,0.0,0.0
9747,-0.026245135813951492,0.0025024432688951492,0.00018310559971723706,0.9996345043182373,-0.027343759313225746,-0.5156251788139343,9.730472564697266,0.0,0.0,0.0
9756,-0.026245135813951492,0.0025024432688951492,0.00018310559971723706,0.9996345043182373,-0.027343759313225746,-0.5156251788139343,9.730472564697266,0.0,0.0,0.0
9786,-0.026245135813951492,0.0025024432688951492,0.00018310559971723706,0.9996345043182373,-0.027343759313225746,-0.5156251788139343,9.730472564697266,0.0,0.0,0.0
9795,-0.026245135813951492,0.0025024432688951492,0.00018310559971723706,0.9996345043182373,-0.027343759313225746,-0.5156251788139343,9.730472564697266,0.0,0.0,0.0
9804,-0.026245135813951492,0.0025024432688951492,0.00018310559971723706,0.9996345043182373,-0.046875014901161194,-0.5351564288139343,9.718753814697266,0.0,0.0,0.0
9815,-0.026245135813951492,0.0025024432688951492,0.00018310559971723706,0.9996345043182373,-0.05859377235174179,-0.5273439288139343,9.761722564697266,0.0,0.0,0.0
9824,-0.026245135813951492,0.0025024432688951492,0.00018310559971723706,0.9996345043182373,-0.05859377235174179,-0.5273439288139343,9.761722564697266,0.0,0.0,0.0
9844,-0.026245135813951492,0.0025024432688951492,0.00018310559971723706,0.9996345043182373,-0.046875014901161194,-0.5273439288139343,9.734378814697266,0.0,0.0,0.0
9853,-0.026245135813951492,0.0025024432688951492,0.00018310559971723706,0.9996345043182373,-0.046875014901161194,-0.5273439288139343,9.734378814697266,0.0,0.0,0.0
9863,-0.026245135813951492,0.0025024432688951492,0.00018310559971723706,0.9996345043182373,-0.046875014901161194,-0.5273439288139343,9.734378814697266,0.0,0.0,0.0
9872,-0.026245135813951492,0.0025024432688951492,0.00018310559971723706,0.9996345043182373,-0.039062514901161194,-0.4960939288139343,9.718753814697266,0.0,0.0,0.0
9881,-0.026245135813951492,0.0025024432688951492,0.00018310559971723706,0.9996345043182373,-0.06640627235174179,-0.4960939288139343,9.703128814697266,0.0,0.0,0.0
9889,-0.026245135813951492,0.0025024432688951492,0.00018310559971723706,0.9996345043182373,-0.039062514901161194,-0.4882814288139343,9.761722564697266,0.0,0.0,0.0
9902,-0.026245135813951492,0.0025024432688951492,0.00018310559971723706,0.9996345043182373,-0.08593752980232239,-0.5156251788139343,9.730472564697266,0.0,0.0,0.0
9911,-0.026245135813951492,0.0025024432688951492,0.00018310559971723706,0.9996345043182373,-0.046875014901161194,-0.4882814288139343,9.707035064697266,0.0,0.0,0.0
9920,-0.026245135813951492,0.0025024432688951492,0.00018310559971723706,0.9996345043182373,-0.07812502980232239,-0.4882814288139343,9.710941314697266,0.0,0.0,0.0
9931,-0.026245135813951492,0.0025024432688951492,0.00018310559971723706,0.9996345043182373,-0.08593752980232239,-0.5078126788139343,9.738285064697266,0.0,0.0,0.0
9940,-0.026245135813951492,0.0025024432688951492,0.00018310559971723706,0.9996345043182373,-0.06640627235174179,-0.4882814288139343,9.687503814697266,0.0,0.0,0.0
9950,-0.026245135813951492,0.0025024432688951492,0.00018310559971723706,0.9996345043182373,-0.07812502980232239,-0.44140639901161194,9.613285064697266,0.0,0.0,0.0
9962,-0.026245135813951492,0.0025024432688951492,0.00018310559971723706,0.9996345043182373,-0.09765628725290298,-0.44921889901161194,9.605472564697266,0.0,0.0,0.0
9970,-0.026245135813951492,0.0025024432688951492,0.00018310559971723706,0.9996345043182373,-0.09765628725290298,-0.44921889901161194,9.605472564697266,-0.03906252980232239,-0.005859379190951586,0.005859379190951586
9979,-0.026245135813951492,0.0025024432688951492,0.00018310559971723706,0.9996345043182373,-0.039062514901161194,-0.4960939288139343,9.703128814697266,-0.03906252980232239,-0.005859379190951586,0.005859379190951586
9989,-0.026245135813951492,0.0025024432688951492,0.00018310559971723706,0.9996345043182373,-0.027343759313225746,-0.5156251788139343,9.703128814697266,-0.03906252980232239,-0.005859379190951586,0.005859379190951586
9995,-0.026245135813951492,0.0025024432688951492,0.00018310559971723706,0.9996345043182373,-0.039062514901161194,-0.5273439288139343,9.789066314697266,-0.03906252980232239,-0.005859379190951586,0.005859379190951586
10004,-0.026245135813951492,0.0025024432688951492,0.00018310559971723706,0.9996345043182373,-0.039062514901161194,-0.5273439288139343,9.789066314697266,0.0,0.003906252793967724,-0.003906252793967724
10014,-0.026245135813951492,0.0025024432688951492,0.00018310559971723706,0.9996345043182373,-0.046875014901161194,-0.4882814288139343,9.734378814697266,0.0,0.003906252793967724,-0.003906252793967724
10022,-0.026245135813951492,0.0025024432688951492,0.00018310559971723706,0.9996345043182373,-0.046875014901161194,-0.4882814288139343,9.734378814697266,-0.001953126396983862,0.0,-0.001953126396983862
10032,-0.026245135813951492,0.0025024432688951492,0.00018310559971723706,0.9996345043182373,-0.046875014901161194,-0.4882814288139343,9.734378814697266,0.001953126396983862,-0.003906252793967724,0.003906252793967724
10041,-0.026245135813951492,0.0025024432688951492,0.00018310559971723706,0.9996345043182373,-0.046875014901161194,-0.4882814288139343,9.734378814697266,-0.001953126396983862,0.0,0.001953126396983862
10050,-0.026245135813951492,0.0025024432688951492,0.00018310559971723706,0.9996345043182373,-0.019531257450580597,-0.5273439288139343,9.710941314697266,-0.001953126396983862,0.0,0.001953126396983862
10060,-0.026245135813951492,0.0025024432688951492,0.00018310559971723706,0.9996345043182373,-0.027343759313225746,-0.5156251788139343,9.753910064697266,-0.001953126396983862,0.0,0.001953126396983862
10070,-0.026245135813951492,0.0025024432688951492,0.00018310559971723706,0.9996345043182373,-0.027343759313225746,-0.5156251788139343,9.753910064697266,0.003906252793967724,-0.001953126396983862,0.003906252793967724
10078,-0.026245135813951492,0.0025024432688951492,0.00018310559971723706,0.9996345043182373,-0.046875014901161194,-0.5273439288139343,9.734378814697266,0.003906252793967724,-0.001953126396983862,0.003906252793967724
10090,-0.026245135813951492,0.0025024432688951492,0.00018310559971723706,0.9996345043182373,-0.039062514901161194,-0.5273439288139343,9.734378814697266,0.003906252793967724,-0.001953126396983862,0.003906252793967724
10099,-0.026245135813951492,0.0025024432688951492,0.00018310559971723706,0.9996345043182373,-0.039062514901161194,-0.5273439288139343,9.734378814697266,0.0,0.005859379190951586,-0.003906252793967724
10107,-0.026245135813951492,0.0025024432688951492,0.00018310559971723706,0.9996345043182373,-0.039062514901161194,-0.5273439288139343,9.734378814697266,0.001953126396983862,0.003906252793967724,-0.007812505587935448
10120,-0.026245135813951492,0.0025024432688951492,0.00018310559971723706,0.9996345043182373,-0.05859377235174179,-0.5273439288139343,9.707035064697266,0.001953126396983862,0.003906252793967724,-0.007812505587935448
10129,-0.026245135813951492,0.0025024432688951492,0.00018310559971723706,0.9996345043182373,-0.05859377235174179,-0.5273439288139343,9.707035064697266,0.003906252793967724,-0.003906252793967724,0.001953126396983862
10137,-0.026245135813951492,0.0025024432688951492,0.00018310559971723706,0.9996345043182373,-0.05859377235174179,-0.5273439288139343,9.707035064697266,0.003906252793967724,-0.005859379190951586,0.007812505587935448
10144,-0.026245135813951492,0.0025024432688951492,0.00018310559971723706,0.9996345043182373,-0.027343759313225746,-0.5468751788139343,9.750003814697266,0.003906252793967724,-0.005859379190951586,0.007812505587935448
