Timestamp,QI,QJ,QK,QR,AX,AY,AZ,GX,GY,GZ
2554,0.0,0.0,0.0,0.0,-0.26953133940696716,0.09765628725290298,9.640628814697266,0.0,0.0,0.0
2558,0.0,0.0,0.0,0.0,-0.26953133940696716,0.09765628725290298,9.652347564697266,0.0,0.0,0.0
2563,0.0,0.0,0.0,0.0,-0.23046883940696716,0.08593752980232239,9.683597564697266,0.0,0.0,0.0
2568,0.0,0.0,0.0,0.0,-0.25000008940696716,0.10546878725290298,9.664066314697266,0.0,0.0,0.0
2572,0.0,0.0,0.0,0.0,-0.25781258940696716,0.06640627235174179,9.679691314697266,0.0,0.0,0.0
2576,0.0,0.0,0.0,0.0,-0.25000008940696716,0.11328128725290298,9.609378814697266,0.0,0.0,0.0
2581,0.0,0.0,0.0,0.0,-0.25000008940696716,0.09765628725290298,9.605472564697266,0.0,0.0,0.0
2585,0.0,0.0,0.0,0.0,-0.23828133940696716,0.09765628725290298,9.644535064697266,0.0,0.0,0.0
2589,0.0,0.0,0.0,0.0,-0.21093757450580597,0.08593752980232239,9.640628814697266,0.0,0.0,0.0
2594,0.0,0.0,0.0,0.0,-0.21875007450580597,0.08593752980232239,9.636722564697266,0.0,0.0,0.0
2598,0.0,0.0,0.0,0.0,-0.23828133940696716,0.09765628725290298,9.644535064697266,0.0,0.0,0.0
2603,0.0,0.0,0.0,0.0,-0.23828133940696716,0.12500004470348358,9.648441314697266,0.0,0.0,0.0
2611,0.0,0.0,0.0,0.0,-0.23828133940696716,0.12500004470348358,9.648441314697266,-0.007812505587935448,0.005859379190951586,0.0
2625,0.0,0.0,0.0,0.0,-0.21875007450580597,0.11328128725290298,9.667972564697266,-0.007812505587935448,0.005859379190951586,0.0
2630,0.0,0.0,0.0,0.0,-0.21875007450580597,0.11328128725290298,9.667972564697266,-0.001953126396983862,0.005859379190951586,-0.003906252793967724
2635,0.0,0.0,0.0,0.0,-0.23828133940696716,0.10546878725290298,9.640628814697266,-0.001953126396983862,0.005859379190951586,-0.003906252793967724
2641,0.0,0.0,0.0,0.0,-0.23828133940696716,0.10546878725290298,9.640628814697266,-0.001953126396983862,0.0,0.0
2648,0.0,0.0,0.0,0.0,-0.23828133940696716,0.10546878725290298,9.640628814697266,0.003906252793967724,0.001953126396983862,0.0
2658,0.0,0.0,0.0,0.0,-0.23828133940696716,0.10546878725290298,9.640628814697266,0.001953126396983862,0.005859379190951586,0.003906252793967724
2662,0.0,0.0,0.0,0.0,-0.23046883940696716,0.09765628725290298,9.664066314697266,0.001953126396983862,0.005859379190951586,0.003906252793967724
2668,0.006347660906612873,0.012573251500725746,0.00012207039981149137,0.9998786449432373,-0.23046883940696716,0.09765628725290298,9.664066314697266,0.001953126396983862,0.005859379190951586,0.003906252793967724
2673,0.006347660906612873,0.012573251500725746,0.00012207039981149137,0.9998786449432373,-0.23046883940696716,0.09765628725290298,9.664066314697266,-0.005859379190951586,0.001953126396983862,0.001953126396983862
2679,0.006286625750362873,0.012573251500725746,0.00012207039981149137,0.9998786449432373,-0.23046883940696716,0.09765628725290298,9.664066314697266,-0.005859379190951586,0.001953126396983862,0.001953126396983862
2685,0.006286625750362873,0.012573251500725746,0.00012207039981149137,0.9998786449432373,-0.25000008940696716,0.08593752980232239,9.652347564697266,-0.005859379190951586,0.001953126396983862,0.001953126396983862
2700,0.006286625750362873,0.012573251500725746,0.00012207039981149137,0.9998786449432373,-0.25000008940696716,0.10546878725290298,9.664066314697266,-0.005859379190951586,0.001953126396983862,0.001953126396983862
2704,0.006164554972201586,0.012573251500725746,0.00018310559971723706,0.9998786449432373,-0.25000008940696716,0.10546878725290298,9.664066314697266,-0.005859379190951586,0.001953126396983862,0.001953126396983862
2710,0.006164554972201586,0.012573251500725746,0.00018310559971723706,0.9998786449432373,-0.25000008940696716,0.09765628725290298,9.640628814697266,-0.005859379190951586,0.001953126396983862,0.001953126396983862
2716,0.006164554972201586,0.012573251500725746,0.00018310559971723706,0.9998786449432373,-0.25000008940696716,0.09765628725290298,9.640628814697266,0.0,0.001953126396983862,0.001953126396983862
2726,0.006164554972201586,0.012573251500725746,0.00018310559971723706,0.9998786449432373,-0.25000008940696716,0.09765628725290298,9.640628814697266,0.001953126396983862,-0.005859379190951586,0.003906252793967724
2731,0.006164554972201586,0.012573251500725746,0.00018310559971723706,0.9998786449432373,-0.25000008940696716,0.10546878725290298,9.636722564697266,0.001953126396983862,-0.005859379190951586,0.003906252793967724
2749,0.006164554972201586,0.012573251500725746,0.00018310559971723706,0.9998786449432373,-0.25000008940696716,0.10546878725290298,9.636722564697266,0.005859379190951586,0.0,0.005859379190951586
2754,0.006042484659701586,0.012573251500725746,0.00018310559971723706,0.9998786449432373,-0.25000008940696716,0.10546878725290298,9.636722564697266,0.005859379190951586,0.0,0.005859379190951586
2765,0.006042484659701586,0.012573251500725746,0.00018310559971723706,0.9998786449432373,-0.25000008940696716,0.10546878725290298,9.636722564697266,0.001953126396983862,0.0,0.001953126396983862
2778,0.006042484659701586,0.012573251500725746,0.00018310559971723706,0.9998786449432373,-0.21875007450580597,0.11328128725290298,9.652347564697266,0.001953126396983862,0.0,0.001953126396983862
2783,0.006042484659701586,0.012573251500725746,0.00018310559971723706,0.9998786449432373,-0.21875007450580597,0.11328128725290298,9.652347564697266,0.003906252793967724,0.0,0.0
2789,0.006042484659701586,0.012573251500725746,0.00018310559971723706,0.9998786449432373,-0.25781258940696716,0.08593752980232239,9.609378814697266,0.003906252793967724,0.0,0.0
2794,0.006042484659701586,0.012573251500725746,0.00018310559971723706,0.9998786449432373,-0.23828133940696716,0.09765628725290298,9.664066314697266,0.003906252793967724,0.0,0.0
2800,0.006042484659701586,0.012573251500725746,0.00018310559971723706,0.9998786449432373,-0.23828133940696716,0.09765628725290298,9.664066314697266,-0.001953126396983862,0.005859379190951586,-0.001953126396983862
2806,0.006042484659701586,0.012573251500725746,0.00018310559971723706,0.9998786449432373,-0.23828133940696716,0.09765628725290298,9.664066314697266,0.001953126396983862,0.001953126396983862,0.0
2811,0.006042484659701586,0.012573251500725746,0.00018310559971723706,0.9998786449432373,-0.23828133940696716,0.09765628725290298,9.664066314697266,-0.003906252793967724,-0.001953126396983862,0.001953126396983862
2818,0.006042484659701586,0.012573251500725746,0.00018310559971723706,0.9998786449432373,-0.23828133940696716,0.09765628725290298,9.664066314697266,-0.001953126396983862,-0.003906252793967724,-0.001953126396983862
2824,0.005798344034701586,0.012634286656975746,0.00018310559971723706,0.9998786449432373,-0.23828133940696716,0.09765628725290298,9.664066314697266,-0.001953126396983862,-0.003906252793967724,-0.001953126396983862
2830,0.005798344034701586,0.012634286656975746,0.00018310559971723706,0.9998786449432373,-0.23828133940696716,0.09765628725290298,9.671878814697266,-0.001953126396983862,-0.003906252793967724,-0.001953126396983862
2836,0.005798344034701586,0.012634286656975746,0.00018310559971723706,0.9998786449432373,-0.23828133940696716,0.09765628725290298,9.671878814697266,0.005859379190951586,0.001953126396983862,-0.001953126396983862
2842,0.005798344034701586,0.012634286656975746,0.00018310559971723706,0.9998786449432373,-0.23828133940696716,0.09765628725290298,9.671878814697266,0.001953126396983862,-0.001953126396983862,0.0
2848,0.005737308878451586,0.012634286656975746,0.00024414079962298274,0.9998786449432373,-0.23828133940696716,0.09765628725290298,9.671878814697266,0.001953126396983862,-0.001953126396983862,0.0
2854,0.005737308878451586,0.012634286656975746,0.00024414079962298274,0.9998786449432373,-0.23828133940696716,0.08593752980232239,9.636722564697266,0.001953126396983862,-0.001953126396983862,0.0
2860,0.005737308878451586,0.012634286656975746,0.00024414079962298274,0.9998786449432373,-0.25000008940696716,0.08593752980232239,9.652347564697266,0.001953126396983862,-0.001953126396983862,0.0
2871,0.005737308878451586,0.012634286656975746,0.00024414079962298274,0.9998786449432373,-0.25000008940696716,0.08593752980232239,9.652347564697266,-0.001953126396983862,0.0,0.001953126396983862
2875,0.005737308878451586,0.012634286656975746,0.00024414079962298274,0.9998786449432373,-0.26953133940696716,0.07812502980232239,9.648441314697266,-0.001953126396983862,0.0,0.001953126396983862
2881,0.005676273722201586,0.012695321813225746,0.00024414079962298274,0.9998786449432373,-0.26953133940696716,0.07812502980232239,9.648441314697266,-0.001953126396983862,0.0,0.001953126396983862
2886,0.005676273722201586,0.012695321813225746,0.00024414079962298274,0.9998786449432373,-0.26953133940696716,0.07812502980232239,9.648441314697266,-0.001953126396983862,0.0,0.001953126396983862
2892,0.005676273722201586,0.012695321813225746,0.00024414079962298274,0.9998786449432373,-0.25000008940696716,0.09765628725290298,9.640628814697266,-0.001953126396983862,0.0,0.001953126396983862
2898,0.005676273722201586,0.012695321813225746,0.00024414079962298274,0.9998786449432373,-0.21093757450580597,0.08593752980232239,9.613285064697266,-0.001953126396983862,0.0,0.001953126396983862
2908,0.005676273722201586,0.012695321813225746,0.00024414079962298274,0.9998786449432373,-0.21093757450580597,0.08593752980232239,9.613285064697266,-0.003906252793967724,0.001953126396983862,-0.003906252793967724
2913,0.005676273722201586,0.012695321813225746,0.00024414079962298274,0.9998786449432373,-0.21093757450580597,0.08593752980232239,9.613285064697266,-0.001953126396983862,0.001953126396983862,0.0
2919,0.005676273722201586,0.012695321813225746,0.00024414079962298274,0.9998786449432373,-0.26953133940696716,0.06640627235174179,9.625003814697266,-0.001953126396983862,0.001953126396983862,0.0
2929,0.005676273722201586,0.012695321813225746,0.00024414079962298274,0.9998786449432373,-0.26953133940696716,0.06640627235174179,9.625003814697266,-0.001953126396983862,0.0,0.005859379190951586
2934,0.005676273722201586,0.012695321813225746,0.00024414079962298274,0.9998786449432373,-0.25781258940696716,0.07812502980232239,9.675785064697266,-0.001953126396983862,0.0,0.005859379190951586
2940,0.005676273722201586,0.012695321813225746,0.00024414079962298274,0.9998786449432373,-0.25781258940696716,0.07812502980232239,9.675785064697266,-0.013671884313225746,-0.001953126396983862,0.001953126396983862
2947,0.005676273722201586,0.012695321813225746,0.00024414079962298274,0.9998786449432373,-0.25781258940696716,0.07812502980232239,9.675785064697266,0.001953126396983862,0.003906252793967724,0.0
2953,0.005676273722201586,0.012695321813225746,0.00024414079962298274,0.9998786449432373,-0.23046883940696716,0.07812502980232239,9.675785064697266,0.001953126396983862,0.003906252793967724,0.0
2958,0.005676273722201586,0.012695321813225746,0.00024414079962298274,0.9998786449432373,-0.23046883940696716,0.07812502980232239,9.675785064697266,0.003906252793967724,-0.001953126396983862,0.0
2968,0.005676273722201586,0.012695321813225746,0.00024414079962298274,0.9998786449432373,-0.23046883940696716,0.07812502980232239,9.675785064697266,-0.005859379190951586,0.001953126396983862,0.001953126396983862
2973,0.005676273722201586,0.012695321813225746,0.00024414079962298274,0.9998786449432373,-0.23046883940696716,0.07812502980232239,9.675785064697266,-0.005859379190951586,0.0,0.007812505587935448
2980,0.005676273722201586,0.012695321813225746,0.00024414079962298274,0.9998786449432373,-0.23046883940696716,0.07812502980232239,9.675785064697266,-0.001953126396983862,0.0,0.0
2987,0.005676273722201586,0.012695321813225746,0.00024414079962298274,0.9998786449432373,-0.23046883940696716,0.07812502980232239,9.675785064697266,-0.001953126396983862,0.001953126396983862,0.001953126396983862
2993,0.005676273722201586,0.012695321813225746,0.00024414079962298274,0.9998786449432373,-0.25000008940696716,0.10546878725290298,9.648441314697266,-0.001953126396983862,0.001953126396983862,0.001953126396983862
2998,0.005676273722201586,0.012695321813225746,0.00024414079962298274,0.9998786449432373,-0.25000008940696716,0.10546878725290298,9.648441314697266,0.003906252793967724,-0.001953126396983862,-0.001953126396983862
3006,0.005676273722201586,0.012695321813225746,0.00024414079962298274,0.9998786449432373,-0.25000008940696716,0.10546878725290298,9.648441314697266,0.001953126396983862,-0.001953126396983862,-0.001953126396983862
3012,0.005676273722201586,0.012695321813225746,0.00024414079962298274,0.9998786449432373,-0.25000008940696716,0.10546878725290298,9.648441314697266,0.001953126396983862,0.003906252793967724,0.0
3018,0.005676273722201586,0.012695321813225746,0.00024414079962298274,0.9998786449432373,-0.25781258940696716,0.07812502980232239,9.652347564697266,0.001953126396983862,0.003906252793967724,0.0
3025,0.005676273722201586,0.012695321813225746,0.00024414079962298274,0.9998786449432373,-0.25781258940696716,0.07812502980232239,9.652347564697266,-0.007812505587935448,0.003906252793967724,0.0
3031,0.005676273722201586,0.012695321813225746,0.00024414079962298274,0.9998786449432373,-0.25781258940696716,0.07812502980232239,9.652347564697266,0.0,0.001953126396983862,0.001953126396983862
3038,0.005676273722201586,0.012695321813225746,0.00024414079962298274,0.9998786449432373,-0.23046883940696716,0.08593752980232239,9.671878814697266,0.0,0.001953126396983862,0.001953126396983862
3043,0.005676273722201586,0.012695321813225746,0.00024414079962298274,0.9998786449432373,-0.23046883940696716,0.08593752980232239,9.671878814697266,0.001953126396983862,0.001953126396983862,-0.001953126396983862
3049,0.005676273722201586,0.012695321813225746,0.00024414079962298274,0.9998786449432373,-0.23046883940696716,0.08593752980232239,9.671878814697266,-0.001953126396983862,0.0,0.005859379190951586
3056,0.005676273722201586,0.012695321813225746,0.00024414079962298274,0.9998786449432373,-0.23046883940696716,0.08593752980232239,9.671878814697266,-0.005859379190951586,0.001953126396983862,-0.001953126396983862
3061,0.005676273722201586,0.012695321813225746,0.00024414079962298274,0.9998786449432373,-0.23046883940696716,0.09765628725290298,9.664066314697266,-0.005859379190951586,0.001953126396983862,-0.001953126396983862
3067,0.005676273722201586,0.012695321813225746,0.00024414079962298274,0.9998786449432373,-0.23046883940696716,0.09765628725290298,9.664066314697266,-0.007812505587935448,0.001953126396983862,0.003906252793967724
3076,0.005676273722201586,0.012695321813225746,0.00024414079962298274,0.9998786449432373,-0.23046883940696716,0.09765628725290298,9.664066314697266,-0.003906252793967724,0.005859379190951586,0.001953126396983862
3082,0.005676273722201586,0.012695321813225746,0.00024414079962298274,0.9998786449432373,-0.23046883940696716,0.09765628725290298,9.664066314697266,-0.003906252793967724,0.003906252793967724,0.001953126396983862
3087,0.005676273722201586,0.012695321813225746,0.00024414079962298274,0.9998786449432373,-0.23046883940696716,0.09765628725290298,9.664066314697266,-0.001953126396983862,0.001953126396983862,0.0
3096,0.005676273722201586,0.012695321813225746,0.00024414079962298274,0.9998786449432373,-0.23046883940696716,0.09765628725290298,9.664066314697266,0.001953126396983862,0.001953126396983862,0.0
3105,0.005676273722201586,0.012695321813225746,0.00024414079962298274,0.9998786449432373,-0.23046883940696716,0.09765628725290298,9.664066314697266,-0.001953126396983862,-0.001953126396983862,0.003906252793967724
3110,0.005676273722201586,0.012695321813225746,0.00024414079962298274,0.9998786449432373,-0.23046883940696716,0.09765628725290298,9.664066314697266,-0.003906252793967724,0.003906252793967724,0.003906252793967724
3117,0.005676273722201586,0.012695321813225746,0.00024414079962298274,0.9998786449432373,-0.21875007450580597,0.09765628725290298,9.671878814697266,-0.003906252793967724,0.003906252793967724,0.003906252793967724
3123,0.005676273722201586,0.012695321813225746,0.00024414079962298274,0.9998786449432373,-0.27734383940696716,0.10546878725290298,9.667972564697266,-0.003906252793967724,0.003906252793967724,0.003906252793967724
3136,0.005676273722201586,0.012695321813225746,0.00024414079962298274,0.9998786449432373,-0.25000008940696716,0.08593752980232239,9.652347564697266,-0.003906252793967724,0.003906252793967724,0.003906252793967724
3141,0.005676273722201586,0.012695321813225746,0.00024414079962298274,0.9998786449432373,-0.23828133940696716,0.08593752980232239,9.671878814697266,-0.003906252793967724,0.003906252793967724,0.003906252793967724
3146,0.005676273722201586,0.012695321813225746,0.00024414079962298274,0.9998786449432373,-0.23828133940696716,0.08593752980232239,9.671878814697266,-0.001953126396983862,0.005859379190951586,-0.001953126396983862
3154,0.005676273722201586,0.012695321813225746,0.00024414079962298274,0.9998786449432373,-0.23828133940696716,0.08593752980232239,9.671878814697266,-0.001953126396983862,0.0,0.003906252793967724
3161,0.005676273722201586,0.012695321813225746,0.00024414079962298274,0.9998786449432373,-0.23828133940696716,0.08593752980232239,9.671878814697266,-0.001953126396983862,0.003906252793967724,0.001953126396983862
3166,0.005676273722201586,0.012695321813225746,0.00024414079962298274,0.9998786449432373,-0.23828133940696716,0.08593752980232239,9.671878814697266,-0.005859379190951586,-0.001953126396983862,-0.001953126396983862
3175,0.005676273722201586,0.012695321813225746,0.00024414079962298274,0.9998786449432373,-0.23828133940696716,0.08593752980232239,9.671878814697266,-0.001953126396983862,-0.005859379190951586,-0.001953126396983862
3180,0.005676273722201586,0.012695321813225746,0.00024414079962298274,0.9998786449432373,-0.23828133940696716,0.08593752980232239,9.671878814697266,0.001953126396983862,0.001953126396983862,-0.003906252793967724
3190,0.005676273722201586,0.012695321813225746,0.00024414079962298274,0.9998786449432373,-0.23828133940696716,0.10546878725290298,9.628910064697266,0.001953126396983862,0.001953126396983862,-0.003906252793967724
3195,0.004455569665879011,0.012573251500725746,0.00042724638478830457,0.9999396800994873,-0.23828133940696716,0.10546878725290298,9.628910064697266,0.001953126396983862,0.001953126396983862,-0.003906252793967724
3207,0.004455569665879011,0.012573251500725746,0.00042724638478830457,0.9999396800994873,-0.25000008940696716,0.08593752980232239,9.632816314697266,0.001953126396983862,0.001953126396983862,-0.003906252793967724
3212,0.004455569665879011,0.012573251500725746,0.00042724638478830457,0.9999396800994873,-0.23828133940696716,0.05859377235174179,9.667972564697266,0.001953126396983862,0.001953126396983862,-0.003906252793967724
3219,0.004455569665879011,0.012573251500725746,0.00042724638478830457,0.9999396800994873,-0.23828133940696716,0.05859377235174179,9.667972564697266,-0.003906252793967724,0.001953126396983862,0.0
3224,0.004455569665879011,0.012573251500725746,0.00042724638478830457,0.9999396800994873,-0.23828133940696716,0.11328128725290298,9.675785064697266,-0.003906252793967724,0.001953126396983862,0.0
3231,0.004455569665879011,0.012573251500725746,0.00042724638478830457,0.9999396800994873,-0.21875007450580597,0.07812502980232239,9.675785064697266,-0.003906252793967724,0.001953126396983862,0.0
3236,0.004455569665879011,0.012573251500725746,0.00042724638478830457,0.9999396800994873,-0.21875007450580597,0.07812502980232239,9.675785064697266,0.003906252793967724,0.001953126396983862,0.001953126396983862
3243,0.004455569665879011,0.012573251500725746,0.00042724638478830457,0.9999396800994873,-0.21875007450580597,0.07812502980232239,9.675785064697266,0.0,0.0,0.007812505587935448
3249,0.004455569665879011,0.012573251500725746,0.00042724638478830457,0.9999396800994873,-0.21875007450580597,0.07812502980232239,9.675785064697266,-0.003906252793967724,0.001953126396983862,0.001953126396983862
3255,0.004455569665879011,0.012573251500725746,0.00042724638478830457,0.9999396800994873,-0.25000008940696716,0.07812502980232239,9.671878814697266,-0.003906252793967724,0.001953126396983862,0.001953126396983862
3261,0.004455569665879011,0.012573251500725746,0.00042724638478830457,0.9999396800994873,-0.25000008940696716,0.07812502980232239,9.671878814697266,0.001953126396983862,-0.001953126396983862,-0.003906252793967724
3269,0.004455569665879011,0.012573251500725746,0.00042724638478830457,0.9999396800994873,-0.25000008940696716,0.07812502980232239,9.671878814697266,0.0,0.001953126396983862,0.005859379190951586
3274,0.004455569665879011,0.012573251500725746,0.00042724638478830457,0.9999396800994873,-0.25000008940696716,0.07812502980232239,9.671878814697266,-0.003906252793967724,0.003906252793967724,-0.001953126396983862
3280,0.004455569665879011,0.012573251500725746,0.00042724638478830457,0.9999396800994873,-0.23828133940696716,0.09765628725290298,9.671878814697266,-0.003906252793967724,0.003906252793967724,-0.001953126396983862
3291,0.004455569665879011,0.012573251500725746,0.00042724638478830457,0.9999396800994873,-0.23828133940696716,0.09765628725290298,9.671878814697266,-0.003906252793967724,0.003906252793967724,0.005859379190951586
3295,0.004455569665879011,0.012573251500725746,0.00042724638478830457,0.9999396800994873,-0.21875007450580597,0.08593752980232239,9.648441314697266,-0.003906252793967724,0.003906252793967724,0.005859379190951586
3301,0.004455569665879011,0.012573251500725746,0.00042724638478830457,0.9999396800994873,-0.21875007450580597,0.08593752980232239,9.648441314697266,-0.003906252793967724,-0.001953126396983862,-0.001953126396983862
3307,0.004455569665879011,0.012573251500725746,0.00042724638478830457,0.9999396800994873,-0.21875007450580597,0.08593752980232239,9.648441314697266,0.003906252793967724,0.001953126396983862,0.001953126396983862
3313,0.004455569665879011,0.012573251500725746,0.0005493168137036264,0.9999396800994873,-0.21875007450580597,0.08593752980232239,9.648441314697266,0.003906252793967724,0.001953126396983862,0.001953126396983862
3319,0.004455569665879011,0.012573251500725746,0.0005493168137036264,0.9999396800994873,-0.23828133940696716,0.10546878725290298,9.675785064697266,0.003906252793967724,0.001953126396983862,0.001953126396983862
3324,0.004455569665879011,0.012573251500725746,0.0005493168137036264,0.9999396800994873,-0.23828133940696716,0.10546878725290298,9.675785064697266,-0.001953126396983862,-0.001953126396983862,-0.001953126396983862
3336,0.004455569665879011,0.012573251500725746,0.0005493168137036264,0.9999396800994873,-0.23828133940696716,0.10546878725290298,9.675785064697266,0.0,0.001953126396983862,0.0
3340,0.004455569665879011,0.012573251500725746,0.0005493168137036264,0.9999396800994873,-0.25000008940696716,0.08593752980232239,9.675785064697266,0.0,0.001953126396983862,0.0
3350,0.004455569665879011,0.012573251500725746,0.0005493168137036264,0.9999396800994873,-0.25000008940696716,0.08593752980232239,9.675785064697266,0.003906252793967724,0.003906252793967724,-0.001953126396983862
3355,0.004455569665879011,0.012573251500725746,0.0005493168137036264,0.9999396800994873,-0.21875007450580597,0.11328128725290298,9.687503814697266,0.003906252793967724,0.003906252793967724,-0.001953126396983862
3364,0.004455569665879011,0.012573251500725746,0.0005493168137036264,0.9999396800994873,-0.21875007450580597,0.11328128725290298,9.687503814697266,-0.005859379190951586,0.001953126396983862,-0.001953126396983862
3369,0.004516604822129011,0.012634286656975746,0.0004882815992459655,0.9999396800994873,-0.21875007450580597,0.11328128725290298,9.687503814697266,-0.005859379190951586,0.001953126396983862,-0.001953126396983862
3376,0.004516604822129011,0.012634286656975746,0.0004882815992459655,0.9999396800994873,-0.21875007450580597,0.11328128725290298,9.687503814697266,-0.001953126396983862,-0.001953126396983862,-0.001953126396983862
3382,0.004516604822129011,0.012634286656975746,0.0004882815992459655,0.9999396800994873,-0.21875007450580597,0.11328128725290298,9.687503814697266,-0.007812505587935448,0.005859379190951586,0.0
3388,0.004455569665879011,0.012634286656975746,0.0004882815992459655,0.9999396800994873,-0.21875007450580597,0.11328128725290298,9.687503814697266,-0.007812505587935448,0.005859379190951586,0.0
3394,0.004455569665879011,0.012634286656975746,0.0004882815992459655,0.9999396800994873,-0.23828133940696716,0.09765628725290298,9.609378814697266,-0.007812505587935448,0.005859379190951586,0.0
3399,0.004455569665879011,0.012634286656975746,0.0004882815992459655,0.9999396800994873,-0.23828133940696716,0.09765628725290298,9.609378814697266,0.003906252793967724,0.001953126396983862,0.001953126396983862
3405,0.004455569665879011,0.012634286656975746,0.0004882815992459655,0.9999396800994873,-0.23828133940696716,0.09765628725290298,9.609378814697266,0.001953126396983862,-0.001953126396983862,0.003906252793967724
3410,0.004455569665879011,0.012634286656975746,0.0004882815992459655,0.9999396800994873,-0.23828133940696716,0.09765628725290298,9.609378814697266,0.0,0.0,-0.001953126396983862
3418,0.004577639978379011,0.012634286656975746,0.0004882815992459655,0.9999396800994873,-0.23828133940696716,0.09765628725290298,9.609378814697266,0.0,0.0,-0.001953126396983862
3424,0.004577639978379011,0.012634286656975746,0.0004882815992459655,0.9999396800994873,-0.25781258940696716,0.09765628725290298,9.671878814697266,0.0,0.0,-0.001953126396983862
3430,0.004577639978379011,0.012634286656975746,0.0004882815992459655,0.9999396800994873,-0.25781258940696716,0.09765628725290298,9.671878814697266,0.0,0.0,0.0
3435,0.004577639978379011,0.012634286656975746,0.0004882815992459655,0.9999396800994873,-0.25781258940696716,0.09765628725290298,9.671878814697266,-0.005859379190951586,0.0,0.0
3448,0.004577639978379011,0.012634286656975746,0.0004882815992459655,0.9999396800994873,-0.25000008940696716,0.08593752980232239,9.707035064697266,-0.005859379190951586,0.0,0.0
3453,0.004577639978379011,0.012634286656975746,0.0004882815992459655,0.9999396800994873,-0.25000008940696716,0.08593752980232239,9.707035064697266,0.001953126396983862,0.001953126396983862,-0.005859379190951586
3459,0.004577639978379011,0.012634286656975746,0.0004882815992459655,0.9999396800994873,-0.23046883940696716,0.06640627235174179,9.640628814697266,0.001953126396983862,0.001953126396983862,-0.005859379190951586
3465,0.004577639978379011,0.012634286656975746,0.0004882815992459655,0.9999396800994873,-0.23046883940696716,0.06640627235174179,9.640628814697266,0.001953126396983862,0.001953126396983862,0.005859379190951586
3471,0.004577639978379011,0.012634286656975746,0.0004882815992459655,0.9999396800994873,-0.23046883940696716,0.06640627235174179,9.640628814697266,0.001953126396983862,-0.001953126396983862,0.001953126396983862
3477,0.004577639978379011,0.012634286656975746,0.0004882815992459655,0.9999396800994873,-0.26953133940696716,0.10546878725290298,9.664066314697266,0.001953126396983862,-0.001953126396983862,0.001953126396983862
3483,0.004577639978379011,0.012634286656975746,0.0004882815992459655,0.9999396800994873,-0.26953133940696716,0.10546878725290298,9.664066314697266,0.0,-0.001953126396983862,0.001953126396983862
3491,0.004577639978379011,0.012634286656975746,0.0004882815992459655,0.9999396800994873,-0.26953133940696716,0.10546878725290298,9.664066314697266,-0.001953126396983862,0.001953126396983862,-0.003906252793967724
3496,0.004577639978379011,0.012634286656975746,0.0004882815992459655,0.9999396800994873,-0.26953133940696716,0.10546878725290298,9.664066314697266,0.0,0.003906252793967724,0.0
3503,0.004577639978379011,0.012634286656975746,0.0004882815992459655,0.9999396800994873,-0.26953133940696716,0.10546878725290298,9.664066314697266,0.001953126396983862,-0.005859379190951586,-0.001953126396983862
3509,0.004577639978379011,0.012634286656975746,0.0004882815992459655,0.9999396800994873,-0.25000008940696716,0.07812502980232239,9.644535064697266,0.001953126396983862,-0.005859379190951586,-0.001953126396983862
3514,0.004577639978379011,0.012634286656975746,0.0004882815992459655,0.9999396800994873,-0.25000008940696716,0.07812502980232239,9.644535064697266,0.003906252793967724,-0.001953126396983862,-0.001953126396983862
3521,0.004577639978379011,0.012634286656975746,0.0004882815992459655,0.9999396800994873,-0.25000008940696716,0.07812502980232239,9.644535064697266,-0.005859379190951586,0.007812505587935448,0.003906252793967724
3532,0.004577639978379011,0.012634286656975746,0.0004882815992459655,0.9999396800994873,-0.25781258940696716,0.10546878725290298,9.632816314697266,-0.005859379190951586,0.007812505587935448,0.003906252793967724
3550,0.004577639978379011,0.012634286656975746,0.0004882815992459655,0.9999396800994873,-0.25781258940696716,0.10546878725290298,9.632816314697266,-0.009765632450580597,0.001953126396983862,0.003906252793967724
3555,0.004577639978379011,0.012634286656975746,0.0004882815992459655,0.9999396800994873,-0.25781258940696716,0.10546878725290298,9.632816314697266,0.005859379190951586,-0.001953126396983862,-0.001953126396983862
3562,0.004577639978379011,0.012634286656975746,0.0004882815992459655,0.9999396800994873,-0.23828133940696716,0.10546878725290298,9.632816314697266,0.005859379190951586,-0.001953126396983862,-0.001953126396983862
3575,0.004577639978379011,0.012634286656975746,0.0004882815992459655,0.9999396800994873,-0.25000008940696716,0.11328128725290298,9.664066314697266,0.005859379190951586,-0.001953126396983862,-0.001953126396983862
3580,0.004577639978379011,0.012634286656975746,0.0004882815992459655,0.9999396800994873,-0.25000008940696716,0.11328128725290298,9.664066314697266,-0.001953126396983862,0.001953126396983862,-0.003906252793967724
3587,0.004577639978379011,0.012634286656975746,0.0004882815992459655,0.9999396800994873,-0.21093757450580597,0.09765628725290298,9.687503814697266,-0.001953126396983862,0.001953126396983862,-0.003906252793967724
3593,0.004577639978379011,0.012634286656975746,0.0004882815992459655,0.9999396800994873,-0.21093757450580597,0.09765628725290298,9.687503814697266,0.001953126396983862,0.003906252793967724,0.0
3599,0.004577639978379011,0.012634286656975746,0.0004882815992459655,0.9999396800994873,-0.21093757450580597,0.09765628725290298,9.687503814697266,0.007812505587935448,-0.001953126396983862,0.001953126396983862
3605,0.004577639978379011,0.012634286656975746,0.0004882815992459655,0.9999396800994873,-0.21093757450580597,0.09765628725290298,9.687503814697266,-0.001953126396983862,0.005859379190951586,-0.001953126396983862
3611,0.004577639978379011,0.012634286656975746,0.0004882815992459655,0.9999396800994873,-0.23828133940696716,0.08593752980232239,9.625003814697266,-0.001953126396983862,0.005859379190951586,-0.001953126396983862
3621,0.004577639978379011,0.012634286656975746,0.0004882815992459655,0.9999396800994873,-0.23828133940696716,0.08593752980232239,9.625003814697266,-0.007812505587935448,0.007812505587935448,0.001953126396983862
3628,0.004577639978379011,0.012634286656975746,0.0004882815992459655,0.9999396800994873,-0.25000008940696716,0.10546878725290298,9.636722564697266,-0.007812505587935448,0.007812505587935448,0.001953126396983862
3633,0.004577639978379011,0.012634286656975746,0.0004882815992459655,0.9999396800994873,-0.25000008940696716,0.10546878725290298,9.636722564697266,-0.001953126396983862,0.001953126396983862,0.001953126396983862
3639,0.004577639978379011,0.012634286656975746,0.0004882815992459655,0.9999396800994873,-0.25000008940696716,0.10546878725290298,9.636722564697266,-0.001953126396983862,0.001953126396983862,0.0
3645,0.004577639978379011,0.012756356969475746,0.0005493168137036264,0.9998786449432373,-0.25000008940696716,0.10546878725290298,9.636722564697266,-0.001953126396983862,0.001953126396983862,0.0
3651,0.004577639978379011,0.012756356969475746,0.0005493168137036264,0.9998786449432373,-0.21875007450580597,0.08593752980232239,9.648441314697266,-0.001953126396983862,0.001953126396983862,0.0
3657,0.004577639978379011,0.012756356969475746,0.0005493168137036264,0.9998786449432373,-0.21875007450580597,0.08593752980232239,9.648441314697266,-0.011718758381903172,0.003906252793967724,0.005859379190951586
3663,0.004577639978379011,0.012756356969475746,0.0005493168137036264,0.9998786449432373,-0.21875007450580597,0.08593752980232239,9.648441314697266,0.001953126396983862,0.0,0.0
3670,0.004577639978379011,0.012756356969475746,0.0005493168137036264,0.9998786449432373,-0.21875007450580597,0.08593752980232239,9.648441314697266,-0.001953126396983862,0.001953126396983862,0.0
3676,0.004577639978379011,0.012756356969475746,0.0005493168137036264,0.9998786449432373,-0.21875007450580597,0.10546878725290298,9.628910064697266,-0.001953126396983862,0.001953126396983862,0.0
3681,0.004577639978379011,0.012756356969475746,0.0005493168137036264,0.9998786449432373,-0.21875007450580597,0.07812502980232239,9.652347564697266,-0.001953126396983862,0.001953126396983862,0.0
3689,0.004577639978379011,0.012756356969475746,0.0005493168137036264,0.9998786449432373,-0.21875007450580597,0.07812502980232239,9.652347564697266,0.0,0.0,0.0
3695,0.004577639978379011,0.012756356969475746,0.0005493168137036264,0.9998786449432373,-0.21875007450580597,0.07812502980232239,9.652347564697266,0.0,0.0,0.0
3701,0.004577639978379011,0.012756356969475746,0.0005493168137036264,0.9998786449432373,-0.21875007450580597,0.07812502980232239,9.652347564697266,0.0,0.0,0.0
3710,0.004577639978379011,0.012756356969475746,0.0005493168137036264,0.9998786449432373,-0.21875007450580597,0.07812502980232239,9.652347564697266,0.0,0.0,0.0
3716,0.004577639978379011,0.012756356969475746,0.0005493168137036264,0.9998786449432373,-0.21875007450580597,0.07812502980232239,9.652347564697266,0.0,0.0,0.0
3721,0.004577639978379011,0.012756356969475746,0.0005493168137036264,0.9998786449432373,-0.23828133940696716,0.08593752980232239,9.648441314697266,0.0,0.0,0.0
3727,0.004577639978379011,0.012756356969475746,0.0005493168137036264,0.9998786449432373,-0.23828133940696716,0.08593752980232239,9.648441314697266,0.0,0.0,0.0
3733,0.004577639978379011,0.012756356969475746,0.0005493168137036264,0.9998786449432373,-0.23828133940696716,0.08593752980232239,9.648441314697266,0.0,0.0,0.0
3739,0.004638675134629011,0.012817392125725746,0.0006103520281612873,0.9998786449432373,-0.23828133940696716,0.08593752980232239,9.648441314697266,0.0,0.0,0.0
3745,0.004638675134629011,0.012817392125725746,0.0006103520281612873,0.9998786449432373,-0.25781258940696716,0.12500004470348358,9.691410064697266,0.0,0.0,0.0
3751,0.004638675134629011,0.012817392125725746,0.0006103520281612873,0.9998786449432373,-0.23046883940696716,0.09765628725290298,9.664066314697266,0.0,0.0,0.0
3757,0.004638675134629011,0.012817392125725746,0.0006103520281612873,0.9998786449432373,-0.23046883940696716,0.09765628725290298,9.664066314697266,0.0,0.0,0.0
3763,0.004638675134629011,0.012817392125725746,0.0006103520281612873,0.9998786449432373,-0.23046883940696716,0.09765628725290298,9.664066314697266,0.0,0.0,0.0
3770,0.004638675134629011,0.012817392125725746,0.0006103520281612873,0.9998786449432373,-0.25781258940696716,0.07812502980232239,9.675785064697266,0.0,0.0,0.0
3783,0.004638675134629011,0.012817392125725746,0.0006103520281612873,0.9998786449432373,-0.21093757450580597,0.09765628725290298,9.628910064697266,0.0,0.0,0.0
3788,0.004638675134629011,0.012817392125725746,0.0006103520281612873,0.9998786449432373,-0.21093757450580597,0.09765628725290298,9.628910064697266,0.0,0.0,0.0
3793,0.004638675134629011,0.012817392125725746,0.0006103520281612873,0.9998786449432373,-0.23046883940696716,0.08593752980232239,9.648441314697266,0.0,0.0,0.0
3800,0.004638675134629011,0.012817392125725746,0.0006103520281612873,0.9998786449432373,-0.23046883940696716,0.08593752980232239,9.648441314697266,0.0,0.0,0.0
3806,0.004638675134629011,0.012817392125725746,0.0006103520281612873,0.9998786449432373,-0.25000008940696716,0.08593752980232239,9.640628814697266,0.0,0.0,0.0
3811,0.004638675134629011,0.012817392125725746,0.0006103520281612873,0.9998786449432373,-0.25000008940696716,0.08593752980232239,9.640628814697266,0.0,0.0,0.0
3818,0.004638675134629011,0.012817392125725746,0.0006103520281612873,0.9998786449432373,-0.25000008940696716,0.08593752980232239,9.640628814697266,0.0,0.0,0.0
3823,0.004638675134629011,0.012817392125725746,0.0006103520281612873,0.9998786449432373,-0.23828133940696716,0.11328128725290298,9.632816314697266,0.0,0.0,0.0
3829,0.004638675134629011,0.012817392125725746,0.0006103520281612873,0.9998786449432373,-0.25000008940696716,0.09765628725290298,9.652347564697266,0.0,0.0,0.0
3841,0.004638675134629011,0.012817392125725746,0.0006103520281612873,0.9998786449432373,-0.25000008940696716,0.09765628725290298,9.652347564697266,0.0,0.0,0.0
3846,0.004638675134629011,0.012817392125725746,0.0006103520281612873,0.9998786449432373,-0.23828133940696716,0.08593752980232239,9.644535064697266,0.0,0.0,0.0
3852,0.004638675134629011,0.012817392125725746,0.0006103520281612873,0.9998786449432373,-0.23828133940696716,0.08593752980232239,9.644535064697266,0.0,0.0,0.0
3858,0.004638675134629011,0.012817392125725746,0.0006103520281612873,0.9998786449432373,-0.23828133940696716,0.08593752980232239,9.648441314697266,0.0,0.0,0.0
3864,0.004638675134629011,0.012817392125725746,0.0006103520281612873,0.9998786449432373,-0.23046883940696716,0.10546878725290298,9.652347564697266,0.0,0.0,0.0
3869,0.004638675134629011,0.012817392125725746,0.0006103520281612873,0.9998786449432373,-0.23046883940696716,0.10546878725290298,9.652347564697266,0.0,0.0,0.0
3879,0.004638675134629011,0.012817392125725746,0.0006103520281612873,0.9998786449432373,-0.23046883940696716,0.10546878725290298,9.652347564697266,0.0,0.0,0.0
3886,0.004638675134629011,0.012817392125725746,0.0006103520281612873,0.9998786449432373,-0.25781258940696716,0.09765628725290298,9.644535064697266,0.0,0.0,0.0
3891,0.004638675134629011,0.012817392125725746,0.0006103520281612873,0.9998786449432373,-0.27734383940696716,0.08593752980232239,9.683597564697266,0.0,0.0,0.0
3897,0.004638675134629011,0.012817392125725746,0.0006103520281612873,0.9998786449432373,-0.25000008940696716,0.08593752980232239,9.652347564697266,0.0,0.0,0.0
3902,0.004638675134629011,0.012817392125725746,0.0006103520281612873,0.9998786449432373,-0.23046883940696716,0.09765628725290298,9.664066314697266,0.0,0.0,0.0
3908,0.004638675134629011,0.012817392125725746,0.0006103520281612873,0.9998786449432373,-0.23828133940696716,0.09765628725290298,9.644535064697266,0.0,0.0,0.0
3918,0.004638675134629011,0.012817392125725746,0.0006103520281612873,0.9998786449432373,-0.23828133940696716,0.09765628725290298,9.644535064697266,0.0,0.0,0.0
3923,0.004638675134629011,0.012817392125725746,0.0006103520281612873,0.9998786449432373,-0.23828133940696716,0.11328128725290298,9.652347564697266,0.0,0.0,0.0
3934,0.004638675134629011,0.012817392125725746,0.0006103520281612873,0.9998786449432373,-0.23828133940696716,0.11328128725290298,9.652347564697266,0.0,0.0,0.0
3939,0.004638675134629011,0.012817392125725746,0.0006103520281612873,0.9998786449432373,-0.23046883940696716,0.12500004470348358,9.648441314697266,0.0,0.0,0.0
3944,0.004638675134629011,0.012817392125725746,0.0006103520281612873,0.9998786449432373,-0.23046883940696716,0.12500004470348358,9.648441314697266,0.0,0.0,0.0
3950,0.004638675134629011,0.012817392125725746,0.0006103520281612873,0.9998786449432373,-0.23046883940696716,0.12500004470348358,9.648441314697266,0.0,0.0,0.0
3956,0.004638675134629011,0.012817392125725746,0.0006103520281612873,0.9998786449432373,-0.23046883940696716,0.12500004470348358,9.648441314697266,0.0,0.0,0.0
3963,0.004638675134629011,0.012817392125725746,0.0006103520281612873,0.9998786449432373,-0.25781258940696716,0.07812502980232239,9.667972564697266,0.0,0.0,0.0
3969,0.004638675134629011,0.012817392125725746,0.0006103520281612873,0.9998786449432373,-0.25781258940696716,0.07812502980232239,9.667972564697266,0.0,0.0,0.0
3975,0.004638675134629011,0.012817392125725746,0.0006103520281612873,0.9998786449432373,-0.25781258940696716,0.07812502980232239,9.667972564697266,0.0,0.0,0.0
3980,0.004638675134629011,0.012817392125725746,0.0006103520281612873,0.9998786449432373,-0.25781258940696716,0.07812502980232239,9.667972564697266,0.0,0.0,0.0
3987,0.004638675134629011,0.012817392125725746,0.0006103520281612873,0.9998786449432373,-0.25781258940696716,0.07812502980232239,9.667972564697266,0.0,0.0,0.0
3993,0.004638675134629011,0.012817392125725746,0.0006103520281612873,0.9998786449432373,-0.23828133940696716,0.11328128725290298,9.679691314697266,0.0,0.0,0.0
3999,0.004638675134629011,0.012817392125725746,0.0006103520281612873,0.9998786449432373,-0.23828133940696716,0.11328128725290298,9.679691314697266,0.0,0.0,0.0
4004,0.004638675134629011,0.012817392125725746,0.0006103520281612873,0.9998786449432373,-0.23828133940696716,0.11328128725290298,9.679691314697266,0.0,0.0,0.0
4012,0.004638675134629011,0.012817392125725746,0.0006103520281612873,0.9998786449432373,-0.23828133940696716,0.11328128725290298,9.679691314697266,0.0,0.0,0.0
4018,0.004638675134629011,0.012817392125725746,0.0006103520281612873,0.9998786449432373,-0.23828133940696716,0.06640627235174179,9.667972564697266,0.0,0.0,0.0
4028,0.004638675134629011,0.012817392125725746,0.0006103520281612873,0.9998786449432373,-0.23828133940696716,0.06640627235174179,9.667972564697266,0.0,0.0,0.0
4033,0.004638675134629011,0.012817392125725746,0.0006103520281612873,0.9998786449432373,-0.23828133940696716,0.09765628725290298,9.671878814697266,0.0,0.0,0.0
4038,0.004638675134629011,0.012817392125725746,0.0006103520281612873,0.9998786449432373,-0.23828133940696716,0.09765628725290298,9.671878814697266,0.0,0.0,0.0
4044,0.004638675134629011,0.012817392125725746,0.0006103520281612873,0.9998786449432373,-0.23828133940696716,0.09765628725290298,9.671878814697266,0.0,0.0,0.0
4050,0.004638675134629011,0.012817392125725746,0.0006103520281612873,0.9998786449432373,-0.23828133940696716,0.09765628725290298,9.671878814697266,0.0,0.0,0.0
4057,0.004638675134629011,0.012817392125725746,0.0006103520281612873,0.9998786449432373,-0.23046883940696716,0.09765628725290298,9.664066314697266,0.0,0.0,0.0
4063,0.004638675134629011,0.012817392125725746,0.0006103520281612873,0.9998786449432373,-0.23046883940696716,0.09765628725290298,9.664066314697266,0.0,0.0,0.0
4079,0.004638675134629011,0.012817392125725746,0.0006103520281612873,0.9998786449432373,-0.26953133940696716,0.08593752980232239,9.640628814697266,0.0,0.0,0.0
4084,0.004638675134629011,0.012817392125725746,0.0006103520281612873,0.9998786449432373,-0.26953133940696716,0.08593752980232239,9.640628814697266,0.0,0.0,0.0
4089,0.004760745447129011,0.012634286656975746,0.0006103520281612873,0.9999396800994873,-0.26953133940696716,0.08593752980232239,9.640628814697266,0.0,0.0,0.0
4096,0.004760745447129011,0.012634286656975746,0.0006103520281612873,0.9999396800994873,-0.23828133940696716,0.09765628725290298,9.691410064697266,0.0,0.0,0.0
4102,0.004760745447129011,0.012634286656975746,0.0006103520281612873,0.9999396800994873,-0.25000008940696716,0.09765628725290298,9.675785064697266,0.0,0.0,0.0
4112,0.004760745447129011,0.012634286656975746,0.0006103520281612873,0.9999396800994873,-0.25000008940696716,0.09765628725290298,9.675785064697266,0.0,0.0,0.0
4117,0.004760745447129011,0.012634286656975746,0.0006103520281612873,0.9999396800994873,-0.25781258940696716,0.09765628725290298,9.644535064697266,0.0,0.0,0.0
4126,0.004760745447129011,0.012634286656975746,0.0006103520281612873,0.9999396800994873,-0.25781258940696716,0.09765628725290298,9.644535064697266,0.0,0.0,0.0
4132,0.004760745447129011,0.012634286656975746,0.0006103520281612873,0.9999396800994873,-0.21875007450580597,0.09765628725290298,9.703128814697266,0.0,0.0,0.0
4139,0.004760745447129011,0.012634286656975746,0.0006103520281612873,0.9999396800994873,-0.21875007450580597,0.09765628725290298,9.703128814697266,0.0,0.0,0.0
4145,0.004760745447129011,0.012634286656975746,0.0006103520281612873,0.9999396800994873,-0.21875007450580597,0.09765628725290298,9.703128814697266,0.0,0.0,0.0
4151,0.004760745447129011,0.012634286656975746,0.0006103520281612873,0.9999396800994873,-0.25781258940696716,0.11328128725290298,9.687503814697266,0.0,0.0,0.0
4161,0.004760745447129011,0.012634286656975746,0.0006103520281612873,0.9999396800994873,-0.25781258940696716,0.11328128725290298,9.687503814697266,0.0,0.0,0.0
4166,0.004760745447129011,0.012634286656975746,0.0006103520281612873,0.9999396800994873,-0.23046883940696716,0.07812502980232239,9.675785064697266,0.0,0.0,0.0
4176,0.004760745447129011,0.012634286656975746,0.0006103520281612873,0.9999396800994873,-0.23046883940696716,0.07812502980232239,9.675785064697266,0.0,0.0,0.0
4182,0.004760745447129011,0.012634286656975746,0.0006103520281612873,0.9999396800994873,-0.23046883940696716,0.07812502980232239,9.675785064697266,0.0,0.0,0.0
4188,0.004760745447129011,0.012634286656975746,0.0006103520281612873,0.9999396800994873,-0.23046883940696716,0.07812502980232239,9.675785064697266,0.0,0.0,0.0
4193,0.004760745447129011,0.012634286656975746,0.0006103520281612873,0.9999396800994873,-0.23046883940696716,0.07812502980232239,9.675785064697266,0.0,0.0,0.0
4200,0.004760745447129011,0.012634286656975746,0.0006103520281612873,0.9999396800994873,-0.23046883940696716,0.07812502980232239,9.675785064697266,0.0,0.0,0.0
4205,0.004760745447129011,0.012634286656975746,0.0006103520281612873,0.9999396800994873,-0.25000008940696716,0.10546878725290298,9.636722564697266,0.0,0.0,0.0
4211,0.004760745447129011,0.012634286656975746,0.0006103520281612873,0.9999396800994873,-0.25000008940696716,0.10546878725290298,9.636722564697266,0.0,0.0,0.0
4218,0.004760745447129011,0.012634286656975746,0.0006103520281612873,0.9999396800994873,-0.25000008940696716,0.10546878725290298,9.636722564697266,0.0,0.0,0.0
4224,0.004760745447129011,0.012634286656975746,0.0006103520281612873,0.9999396800994873,-0.25781258940696716,0.08593752980232239,9.683597564697266,0.0,0.0,0.0
4230,0.004760745447129011,0.012634286656975746,0.0006103520281612873,0.9999396800994873,-0.21875007450580597,0.09765628725290298,9.683597564697266,0.0,0.0,0.0
4235,0.004760745447129011,0.012634286656975746,0.0006103520281612873,0.9999396800994873,-0.21875007450580597,0.09765628725290298,9.683597564697266,0.0,0.0,0.0
4250,0.004760745447129011,0.012634286656975746,0.0006103520281612873,0.9999396800994873,-0.21875007450580597,0.09765628725290298,9.683597564697266,0.0,0.0,0.0
4264,0.004760745447129011,0.012634286656975746,0.0006103520281612873,0.9999396800994873,-0.21875007450580597,0.09765628725290298,9.683597564697266,0.0,0.0,0.0
4270,0.004760745447129011,0.012634286656975746,0.0006103520281612873,0.9999396800994873,-0.25000008940696716,0.10546878725290298,9.648441314697266,0.0,0.0,0.0
4281,0.004760745447129011,0.012634286656975746,0.0006103520281612873,0.9999396800994873,-0.25000008940696716,0.10546878725290298,9.648441314697266,0.0,0.0,0.0
4285,0.004760745447129011,0.012634286656975746,0.0006103520281612873,0.9999396800994873,-0.23828133940696716,0.09765628725290298,9.648441314697266,0.0,0.0,0.0
4295,0.004760745447129011,0.012634286656975746,0.0006103520281612873,0.9999396800994873,-0.23828133940696716,0.09765628725290298,9.648441314697266,0.0,0.0,0.0
4299,0.004760745447129011,0.012634286656975746,0.0006103520281612873,0.9999396800994873,-0.26953133940696716,0.09765628725290298,9.687503814697266,0.0,0.0,0.0
4318,0.004760745447129011,0.012634286656975746,0.0006103520281612873,0.9999396800994873,-0.25000008940696716,0.10546878725290298,9.644535064697266,0.0,0.0,0.0
4323,0.004821780603379011,0.012573251500725746,0.0006103520281612873,0.9999396800994873,-0.25000008940696716,0.10546878725290298,9.644535064697266,0.0,0.0,0.0
4328,0.004821780603379011,0.012573251500725746,0.0006103520281612873,0.9999396800994873,-0.23828133940696716,0.11328128725290298,9.652347564697266,0.0,0.0,0.0
4334,0.004821780603379011,0.012573251500725746,0.0006103520281612873,0.9999396800994873,-0.23828133940696716,0.11328128725290298,9.652347564697266,0.0,0.0,0.0
4344,0.004821780603379011,0.012573251500725746,0.0006103520281612873,0.9999396800994873,-0.23828133940696716,0.11328128725290298,9.652347564697266,0.0,0.0,0.0
4349,0.004821780603379011,0.012573251500725746,0.0006103520281612873,0.9999396800994873,-0.21875007450580597,0.08593752980232239,9.648441314697266,0.0,0.0,0.0
4356,0.004821780603379011,0.012573251500725746,0.0006103520281612873,0.9999396800994873,-0.21875007450580597,0.08593752980232239,9.648441314697266,0.0,0.0,0.0
4362,0.004821780603379011,0.012573251500725746,0.0006103520281612873,0.9999396800994873,-0.21875007450580597,0.08593752980232239,9.648441314697266,0.0,0.0,0.0
4368,0.004821780603379011,0.012573251500725746,0.0006103520281612873,0.9999396800994873,-0.26953133940696716,0.09765628725290298,9.652347564697266,0.0,0.0,0.0
4374,0.004821780603379011,0.012573251500725746,0.0006103520281612873,0.9999396800994873,-0.26953133940696716,0.09765628725290298,9.652347564697266,0.0,0.0,0.0
4380,0.004821780603379011,0.012573251500725746,0.0006103520281612873,0.9999396800994873,-0.26953133940696716,0.09765628725290298,9.652347564697266,0.0,0.0,0.0
4385,0.004821780603379011,0.012573251500725746,0.0006103520281612873,0.9999396800994873,-0.26953133940696716,0.09765628725290298,9.652347564697266,0.0,0.0,0.0
4391,0.004821780603379011,0.012573251500725746,0.0006103520281612873,0.9999396800994873,-0.26953133940696716,0.09765628725290298,9.652347564697266,0.0,0.0,0.0
4398,0.004821780603379011,0.012573251500725746,0.0006103520281612873,0.9999396800994873,-0.21875007450580597,0.10546878725290298,9.652347564697266,0.0,0.0,0.0
4404,0.004821780603379011,0.012573251500725746,0.0006103520281612873,0.9999396800994873,-0.23828133940696716,0.10546878725290298,9.640628814697266,0.0,0.0,0.0
4416,0.004821780603379011,0.012573251500725746,0.0006103520281612873,0.9999396800994873,-0.23828133940696716,0.10546878725290298,9.640628814697266,0.0,0.0,0.0
4421,0.004821780603379011,0.012573251500725746,0.0006103520281612873,0.9999396800994873,-0.23828133940696716,0.10546878725290298,9.640628814697266,0.0,0.0,0.0
4427,0.004821780603379011,0.012573251500725746,0.0006103520281612873,0.9999396800994873,-0.21875007450580597,0.07812502980232239,9.640628814697266,0.0,0.0,0.0
4433,0.004821780603379011,0.012573251500725746,0.0006103520281612873,0.9999396800994873,-0.25000008940696716,0.06640627235174179,9.703128814697266,0.0,0.0,0.0
4440,0.004821780603379011,0.012573251500725746,0.0006103520281612873,0.9999396800994873,-0.25000008940696716,0.06640627235174179,9.703128814697266,0.0,0.0,0.0
4445,0.004821780603379011,0.012573251500725746,0.0006103520281612873,0.9999396800994873,-0.25000008940696716,0.06640627235174179,9.703128814697266,0.0,0.0,0.0
4452,0.004821780603379011,0.012573251500725746,0.0006103520281612873,0.9999396800994873,-0.25000008940696716,0.06640627235174179,9.703128814697266,0.0,0.0,0.0
4457,0.004821780603379011,0.012573251500725746,0.0006103520281612873,0.9999396800994873,-0.23828133940696716,0.11328128725290298,9.652347564697266,0.0,0.0,0.0
4463,0.004821780603379011,0.012573251500725746,0.0006103520281612873,0.9999396800994873,-0.23828133940696716,0.11328128725290298,9.652347564697266,0.0,0.0,0.0
4469,0.004821780603379011,0.012573251500725746,0.0006103520281612873,0.9999396800994873,-0.23046883940696716,0.09765628725290298,9.648441314697266,0.0,0.0,0.0
4474,0.004821780603379011,0.012573251500725746,0.0006103520281612873,0.9999396800994873,-0.23046883940696716,0.09765628725290298,9.648441314697266,0.0,0.0,0.0
4481,0.004821780603379011,0.012573251500725746,0.0006103520281612873,0.9999396800994873,-0.23046883940696716,0.09765628725290298,9.648441314697266,0.0,0.0,0.0
4488,0.004821780603379011,0.012573251500725746,0.0006103520281612873,0.9999396800994873,-0.23828133940696716,0.09765628725290298,9.648441314697266,0.0,0.0,0.0
4498,0.004821780603379011,0.012573251500725746,0.0006103520281612873,0.9999396800994873,-0.25000008940696716,0.08593752980232239,9.679691314697266,0.0,0.0,0.0
4503,0.004821780603379011,0.012573251500725746,0.0006103520281612873,0.9999396800994873,-0.23046883940696716,0.10546878725290298,9.667972564697266,0.0,0.0,0.0
4517,0.004821780603379011,0.012573251500725746,0.0006103520281612873,0.9999396800994873,-0.25781258940696716,0.12500004470348358,9.664066314697266,0.0,0.0,0.0
4521,0.004821780603379011,0.012573251500725746,0.0006103520281612873,0.9999396800994873,-0.23828133940696716,0.08593752980232239,9.648441314697266,0.0,0.0,0.0
4528,0.004821780603379011,0.012573251500725746,0.0006103520281612873,0.9999396800994873,-0.23828133940696716,0.08593752980232239,9.648441314697266,0.0,0.0,0.0
4537,0.004821780603379011,0.012573251500725746,0.0006103520281612873,0.9999396800994873,-0.23046883940696716,0.10546878725290298,9.640628814697266,0.0,0.0,0.0
4543,0.004821780603379011,0.012573251500725746,0.0006103520281612873,0.9999396800994873,-0.25781258940696716,0.09765628725290298,9.648441314697266,0.0,0.0,0.0
4548,0.004821780603379011,0.012573251500725746,0.0006103520281612873,0.9999396800994873,-0.25781258940696716,0.09765628725290298,9.648441314697266,0.0,0.0,0.0
4554,0.004821780603379011,0.012573251500725746,0.0006103520281612873,0.9999396800994873,-0.25781258940696716,0.09765628725290298,9.648441314697266,0.0,0.0,0.0
4560,0.004821780603379011,0.012573251500725746,0.0006103520281612873,0.9999396800994873,-0.25781258940696716,0.09765628725290298,9.648441314697266,0.0,0.0,0.0
4567,0.004821780603379011,0.012573251500725746,0.0006103520281612873,0.9999396800994873,-0.23046883940696716,0.08593752980232239,9.636722564697266,0.0,0.0,0.0
4582,0.004821780603379011,0.012573251500725746,0.0006103520281612873,0.9999396800994873,-0.23046883940696716,0.08593752980232239,9.636722564697266,0.0,0.0,0.0
4591,0.004821780603379011,0.012573251500725746,0.0006103520281612873,0.9999396800994873,-0.23046883940696716,0.08593752980232239,9.636722564697266,0.0,0.0,0.0
4595,0.004821780603379011,0.012573251500725746,0.0006103520281612873,0.9999396800994873,-0.23046883940696716,0.08593752980232239,9.636722564697266,0.0,0.0,0.0
4601,0.004821780603379011,0.012573251500725746,0.0006103520281612873,0.9999396800994873,-0.25000008940696716,0.09765628725290298,9.640628814697266,0.0,0.0,0.0
4611,0.004821780603379011,0.012573251500725746,0.0006103520281612873,0.9999396800994873,-0.23828133940696716,0.08593752980232239,9.671878814697266,0.0,0.0,0.0
4617,0.004821780603379011,0.012573251500725746,0.0006103520281612873,0.9999396800994873,-0.23828133940696716,0.08593752980232239,9.671878814697266,0.0,0.0,0.0
4630,0.004821780603379011,0.012573251500725746,0.0006103520281612873,0.9999396800994873,-0.27734383940696716,0.10546878725290298,9.632816314697266,0.0,0.0,0.0
4636,0.004821780603379011,0.012573251500725746,0.0006103520281612873,0.9999396800994873,-0.26953133940696716,0.09765628725290298,9.632816314697266,0.0,0.0,0.0
4649,0.004821780603379011,0.012573251500725746,0.0006103520281612873,0.9999396800994873,-0.26953133940696716,0.09765628725290298,9.632816314697266,0.0,0.0,0.0
4655,0.004821780603379011,0.012573251500725746,0.0006103520281612873,0.9999396800994873,-0.25781258940696716,0.08593752980232239,9.609378814697266,0.0,0.0,0.0
4660,0.004821780603379011,0.012573251500725746,0.0006103520281612873,0.9999396800994873,-0.25781258940696716,0.08593752980232239,9.609378814697266,0.0,0.0,0.0
4666,0.004821780603379011,0.012573251500725746,0.0006103520281612873,0.9999396800994873,-0.25781258940696716,0.08593752980232239,9.609378814697266,0.0,0.0,0.0
4676,0.004821780603379011,0.012573251500725746,0.0006103520281612873,0.9999396800994873,-0.25781258940696716,0.08593752980232239,9.609378814697266,0.0,0.0,0.0
4683,0.004821780603379011,0.012573251500725746,0.0006103520281612873,0.9999396800994873,-0.23828133940696716,0.09765628725290298,9.718753814697266,0.0,0.0,0.0
4688,0.004821780603379011,0.012573251500725746,0.0006103520281612873,0.9999396800994873,-0.23828133940696716,0.09765628725290298,9.718753814697266,0.0,0.0,0.0
4695,0.004821780603379011,0.012573251500725746,0.0006103520281612873,0.9999396800994873,-0.23828133940696716,0.06640627235174179,9.679691314697266,0.0,0.0,0.0
4700,0.004821780603379011,0.012573251500725746,0.0006103520281612873,0.9999396800994873,-0.23828133940696716,0.06640627235174179,9.679691314697266,0.0,0.0,0.0
4714,0.004821780603379011,0.012573251500725746,0.0006103520281612873,0.9999396800994873,-0.23828133940696716,0.07812502980232239,9.707035064697266,0.0,0.0,0.0
4719,0.004821780603379011,0.012573251500725746,0.0006103520281612873,0.9999396800994873,-0.23828133940696716,0.07812502980232239,9.707035064697266,0.0,0.0,0.0
4725,0.004821780603379011,0.012573251500725746,0.0006103520281612873,0.9999396800994873,-0.27734383940696716,0.08593752980232239,9.664066314697266,0.0,0.0,0.0
4736,0.004821780603379011,0.012573251500725746,0.0006103520281612873,0.9999396800994873,-0.27734383940696716,0.08593752980232239,9.664066314697266,0.0,0.0,0.0
4744,0.004821780603379011,0.012573251500725746,0.0006103520281612873,0.9999396800994873,-0.21093757450580597,0.06640627235174179,9.644535064697266,0.0,0.0,0.0
4749,0.004821780603379011,0.012573251500725746,0.0006103520281612873,0.9999396800994873,-0.21093757450580597,0.06640627235174179,9.644535064697266,0.0,0.0,0.0
4755,0.004821780603379011,0.012573251500725746,0.0006103520281612873,0.9999396800994873,-0.21875007450580597,0.09765628725290298,9.664066314697266,0.0,0.0,0.0
4761,0.004821780603379011,0.012573251500725746,0.0006103520281612873,0.9999396800994873,-0.21875007450580597,0.09765628725290298,9.664066314697266,0.0,0.0,0.0
4766,0.004821780603379011,0.012573251500725746,0.0006103520281612873,0.9999396800994873,-0.21875007450580597,0.09765628725290298,9.664066314697266,0.0,0.0,0.0
4772,0.004821780603379011,0.012573251500725746,0.0006103520281612873,0.9999396800994873,-0.21875007450580597,0.09765628725290298,9.664066314697266,0.0,0.0,0.0
4779,0.004821780603379011,0.012573251500725746,0.0006103520281612873,0.9999396800994873,-0.23046883940696716,0.10546878725290298,9.652347564697266,0.0,0.0,0.0
4785,0.004821780603379011,0.012573251500725746,0.0006103520281612873,0.9999396800994873,-0.25781258940696716,0.11328128725290298,9.652347564697266,0.0,0.0,0.0
4790,0.004821780603379011,0.012573251500725746,0.0006103520281612873,0.9999396800994873,-0.25781258940696716,0.11328128725290298,9.652347564697266,0.0,0.0,0.0
4796,0.004821780603379011,0.012573251500725746,0.0006103520281612873,0.9999396800994873,-0.25781258940696716,0.11328128725290298,9.652347564697266,0.0,0.0,0.0
4802,0.004821780603379011,0.012573251500725746,0.0006103520281612873,0.9999396800994873,-0.25781258940696716,0.11328128725290298,9.652347564697266,0.0,0.0,0.0
4808,0.004821780603379011,0.012573251500725746,0.0006103520281612873,0.9999396800994873,-0.23046883940696716,0.10546878725290298,9.652347564697266,0.0,0.0,0.0
4814,0.004821780603379011,0.012573251500725746,0.0006103520281612873,0.9999396800994873,-0.23046883940696716,0.10546878725290298,9.652347564697266,0.0,0.0,0.0
4823,0.004821780603379011,0.012573251500725746,0.0006103520281612873,0.9999396800994873,-0.23046883940696716,0.10546878725290298,9.652347564697266,0.0,0.0,0.0
4828,0.004821780603379011,0.012573251500725746,0.0006103520281612873,0.9999396800994873,-0.23046883940696716,0.10546878725290298,9.652347564697266,0.0,0.0,0.0
4834,0.004821780603379011,0.012573251500725746,0.0006103520281612873,0.9999396800994873,-0.25781258940696716,0.10546878725290298,9.589847564697266,0.0,0.0,0.0
4839,0.004821780603379011,0.012573251500725746,0.0006103520281612873,0.9999396800994873,-0.25781258940696716,0.10546878725290298,9.589847564697266,0.0,0.0,0.0
4849,0.004821780603379011,0.012573251500725746,0.0006103520281612873,0.9999396800994873,-0.25781258940696716,0.10546878725290298,9.589847564697266,0.0,0.0,0.0
4857,0.004821780603379011,0.012573251500725746,0.0006103520281612873,0.9999396800994873,-0.25781258940696716,0.10546878725290298,9.589847564697266,0.0,0.0,0.0
4862,0.004821780603379011,0.012573251500725746,0.0006103520281612873,0.9999396800994873,-0.25781258940696716,0.10546878725290298,9.589847564697266,0.0,0.0,0.0
4869,0.004821780603379011,0.012573251500725746,0.0006103520281612873,0.9999396800994873,-0.25781258940696716,0.10546878725290298,9.589847564697266,0.0,0.0,0.0
4879,0.004821780603379011,0.012573251500725746,0.0006103520281612873,0.9999396800994873,-0.25781258940696716,0.10546878725290298,9.589847564697266,0.0,0.0,0.0
4884,0.004821780603379011,0.012573251500725746,0.0006103520281612873,0.9999396800994873,-0.25000008940696716,0.07812502980232239,9.671878814697266,0.0,0.0,0.0
4890,0.004821780603379011,0.012573251500725746,0.0006103520281612873,0.9999396800994873,-0.25000008940696716,0.07812502980232239,9.671878814697266,0.0,0.0,0.0
4895,0.004821780603379011,0.012573251500725746,0.0006103520281612873,0.9999396800994873,-0.25000008940696716,0.07812502980232239,9.671878814697266,0.0,0.0,0.0
4901,0.004821780603379011,0.012573251500725746,0.0006103520281612873,0.9999396800994873,-0.25000008940696716,0.07812502980232239,9.671878814697266,0.0,0.0,0.0
4908,0.004821780603379011,0.012573251500725746,0.0006103520281612873,0.9999396800994873,-0.21093757450580597,0.07812502980232239,9.644535064697266,0.0,0.0,0.0
4921,0.004821780603379011,0.012573251500725746,0.0006103520281612873,0.9999396800994873,-0.21875007450580597,0.07812502980232239,9.675785064697266,0.0,0.0,0.0
4926,0.004821780603379011,0.012573251500725746,0.0006103520281612873,0.9999396800994873,-0.21875007450580597,0.07812502980232239,9.675785064697266,0.0,0.0,0.0
4931,0.004821780603379011,0.012573251500725746,0.0006103520281612873,0.9999396800994873,-0.25000008940696716,0.12500004470348358,9.613285064697266,0.0,0.0,0.0
4937,0.004821780603379011,0.012573251500725746,0.0006103520281612873,0.9999396800994873,-0.23046883940696716,0.08593752980232239,9.644535064697266,0.0,0.0,0.0
4943,0.004821780603379011,0.012573251500725746,0.0006103520281612873,0.9999396800994873,-0.23046883940696716,0.08593752980232239,9.644535064697266,0.0,0.0,0.0
4954,0.004821780603379011,0.012573251500725746,0.0006103520281612873,0.9999396800994873,-0.23046883940696716,0.08593752980232239,9.644535064697266,0.0,0.0,0.0
4958,0.004821780603379011,0.012573251500725746,0.0006103520281612873,0.9999396800994873,-0.21875007450580597,0.10546878725290298,9.667972564697266,0.0,0.0,0.0
4964,0.004821780603379011,0.012573251500725746,0.0006103520281612873,0.9999396800994873,-0.21875007450580597,0.10546878725290298,9.667972564697266,0.0,0.0,0.0
4969,0.004821780603379011,0.012573251500725746,0.0006103520281612873,0.9999396800994873,-0.21875007450580597,0.10546878725290298,9.667972564697266,0.0,0.0,0.0
4976,0.004821780603379011,0.012573251500725746,0.0006103520281612873,0.9999396800994873,-0.21875007450580597,0.10546878725290298,9.667972564697266,0.0,0.0,0.0
4982,0.004821780603379011,0.012573251500725746,0.0006103520281612873,0.9999396800994873,-0.23046883940696716,0.10546878725290298,9.707035064697266,0.0,0.0,0.0
4987,0.004821780603379011,0.012573251500725746,0.0006103520281612873,0.9999396800994873,-0.23046883940696716,0.10546878725290298,9.707035064697266,0.0,0.0,0.0
5003,0.004821780603379011,0.012573251500725746,0.0006103520281612873,0.9999396800994873,-0.23046883940696716,0.10546878725290298,9.707035064697266,0.0,0.0,0.0
5013,0.004821780603379011,0.012573251500725746,0.0006103520281612873,0.9999396800994873,-0.23046883940696716,0.10546878725290298,9.707035064697266,0.0,0.0,0.0
5019,0.004821780603379011,0.012573251500725746,0.0006103520281612873,0.9999396800994873,-0.21093757450580597,0.09765628725290298,9.667972564697266,0.0,0.0,0.0
5024,0.004821780603379011,0.012573251500725746,0.0006103520281612873,0.9999396800994873,-0.23046883940696716,0.10546878725290298,9.679691314697266,0.0,0.0,0.0
5030,0.004821780603379011,0.012573251500725746,0.0006103520281612873,0.9999396800994873,-0.23046883940696716,0.09765628725290298,9.636722564697266,0.0,0.0,0.0
5036,0.004821780603379011,0.012573251500725746,0.0006103520281612873,0.9999396800994873,-0.23046883940696716,0.10546878725290298,9.675785064697266,0.0,0.0,0.0
5042,0.004821780603379011,0.012573251500725746,0.0006103520281612873,0.9999396800994873,-0.23046883940696716,0.10546878725290298,9.675785064697266,0.0,0.0,0.0
5051,0.004821780603379011,0.012573251500725746,0.0006103520281612873,0.9999396800994873,-0.23046883940696716,0.10546878725290298,9.675785064697266,0.0,0.0,0.0
5057,0.004821780603379011,0.012573251500725746,0.0006103520281612873,0.9999396800994873,-0.23046883940696716,0.10546878725290298,9.675785064697266,0.0,0.0,0.0
5067,0.004821780603379011,0.012573251500725746,0.0006103520281612873,0.9999396800994873,-0.23046883940696716,0.10546878725290298,9.675785064697266,0.0,0.0,0.0
5071,0.004821780603379011,0.012573251500725746,0.0006103520281612873,0.9999396800994873,-0.25781258940696716,0.07812502980232239,9.652347564697266,0.0,0.0,0.0
5084,0.004821780603379011,0.012573251500725746,0.0006103520281612873,0.9999396800994873,-0.25781258940696716,0.07812502980232239,9.652347564697266,0.0,0.0,0.0
5090,0.004821780603379011,0.012573251500725746,0.0006103520281612873,0.9999396800994873,-0.25781258940696716,0.07812502980232239,9.652347564697266,0.0,0.0,0.0
5096,0.004821780603379011,0.012573251500725746,0.0006103520281612873,0.9999396800994873,-0.25000008940696716,0.09765628725290298,9.628910064697266,0.0,0.0,0.0
5101,0.004821780603379011,0.012573251500725746,0.0006103520281612873,0.9999396800994873,-0.25000008940696716,0.09765628725290298,9.628910064697266,0.0,0.0,0.0
5111,0.004821780603379011,0.012573251500725746,0.0006103520281612873,0.9999396800994873,-0.25000008940696716,0.09765628725290298,9.628910064697266,0.0,0.0,0.0
5116,0.004821780603379011,0.012573251500725746,0.0006103520281612873,0.9999396800994873,-0.25000008940696716,0.08593752980232239,9.652347564697266,0.0,0.0,0.0
5122,0.004821780603379011,0.012573251500725746,0.0006103520281612873,0.9999396800994873,-0.25000008940696716,0.08593752980232239,9.652347564697266,0.0,0.0,0.0
5128,0.004821780603379011,0.012573251500725746,0.0006103520281612873,0.9999396800994873,-0.25000008940696716,0.08593752980232239,9.652347564697266,0.0,0.0,0.0
5134,0.004821780603379011,0.012573251500725746,0.0006103520281612873,0.9999396800994873,-0.25000008940696716,0.08593752980232239,9.652347564697266,0.0,0.0,0.0
5140,0.004821780603379011,0.012573251500725746,0.0006103520281612873,0.9999396800994873,-0.27734383940696716,0.08593752980232239,9.691410064697266,0.0,0.0,0.0
5145,0.004821780603379011,0.012573251500725746,0.0006103520281612873,0.9999396800994873,-0.27734383940696716,0.08593752980232239,9.691410064697266,0.0,0.0,0.0
5160,0.004821780603379011,0.012573251500725746,0.0006103520281612873,0.9999396800994873,-0.21875007450580597,0.07812502980232239,9.652347564697266,0.0,0.0,0.0
5167,0.004821780603379011,0.012573251500725746,0.0006103520281612873,0.9999396800994873,-0.23828133940696716,0.10546878725290298,9.652347564697266,0.0,0.0,0.0
5172,0.004821780603379011,0.012573251500725746,0.0006103520281612873,0.9999396800994873,-0.23828133940696716,0.10546878725290298,9.652347564697266,0.0,0.0,0.0
5178,0.004821780603379011,0.012573251500725746,0.0006103520281612873,0.9999396800994873,-0.23828133940696716,0.10546878725290298,9.652347564697266,0.0,0.0,0.0
5184,0.004821780603379011,0.012573251500725746,0.0006103520281612873,0.9999396800994873,-0.23828133940696716,0.10546878725290298,9.652347564697266,0.0,0.0,0.0
5190,0.004821780603379011,0.012573251500725746,0.0006103520281612873,0.9999396800994873,-0.23828133940696716,0.09765628725290298,9.664066314697266,0.0,0.0,0.0
5195,0.004821780603379011,0.012573251500725746,0.0006103520281612873,0.9999396800994873,-0.23828133940696716,0.09765628725290298,9.664066314697266,0.0,0.0,0.0
5206,0.004821780603379011,0.012573251500725746,0.0006103520281612873,0.9999396800994873,-0.23828133940696716,0.09765628725290298,9.664066314697266,0.0,0.0,0.0
5211,0.004821780603379011,0.012573251500725746,0.0006103520281612873,0.9999396800994873,-0.23828133940696716,0.09765628725290298,9.664066314697266,0.0,0.0,0.0
5224,0.004821780603379011,0.012573251500725746,0.0006103520281612873,0.9999396800994873,-0.21093757450580597,0.10546878725290298,9.609378814697266,0.0,0.0,0.0
5234,0.004821780603379011,0.012573251500725746,0.0006103520281612873,0.9999396800994873,-0.21093757450580597,0.10546878725290298,9.609378814697266,0.0,0.0,0.0
5240,0.004821780603379011,0.012573251500725746,0.0006103520281612873,0.9999396800994873,-0.21875007450580597,0.08593752980232239,9.636722564697266,0.0,0.0,0.0
5250,0.004821780603379011,0.012573251500725746,0.0006103520281612873,0.9999396800994873,-0.21875007450580597,0.08593752980232239,9.636722564697266,0.003906252793967724,0.015625011175870895,-0.003906252793967724
5256,0.004821780603379011,0.012573251500725746,0.0006103520281612873,0.9999396800994873,-0.23828133940696716,0.10546878725290298,9.667972564697266,0.003906252793967724,0.015625011175870895,-0.003906252793967724
5261,0.004821780603379011,0.012573251500725746,0.0006103520281612873,0.9999396800994873,-0.23828133940696716,0.10546878725290298,9.667972564697266,0.003906252793967724,-0.001953126396983862,-0.005859379190951586
5267,0.004821780603379011,0.012573251500725746,0.0006103520281612873,0.9999396800994873,-0.23828133940696716,0.10546878725290298,9.667972564697266,-0.001953126396983862,-0.003906252793967724,-0.005859379190951586
5274,0.004821780603379011,0.012573251500725746,0.0006103520281612873,0.9999396800994873,-0.21875007450580597,0.11328128725290298,9.640628814697266,-0.001953126396983862,-0.003906252793967724,-0.005859379190951586
5287,0.004821780603379011,0.012573251500725746,0.0006103520281612873,0.9999396800994873,-0.19921882450580597,0.10546878725290298,9.644535064697266,-0.001953126396983862,-0.003906252793967724,-0.005859379190951586
5293,0.004821780603379011,0.012573251500725746,0.0006103520281612873,0.9999396800994873,-0.19921882450580597,0.10546878725290298,9.644535064697266,0.001953126396983862,0.003906252793967724,0.003906252793967724
5298,0.004821780603379011,0.012573251500725746,0.0006103520281612873,0.9999396800994873,-0.23046883940696716,0.08593752980232239,9.636722564697266,0.001953126396983862,0.003906252793967724,0.003906252793967724
5304,0.004821780603379011,0.012573251500725746,0.0006103520281612873,0.9999396800994873,-0.23046883940696716,0.08593752980232239,9.636722564697266,0.007812505587935448,0.003906252793967724,0.005859379190951586
5310,0.004821780603379011,0.012573251500725746,0.0006103520281612873,0.9999396800994873,-0.23046883940696716,0.08593752980232239,9.636722564697266,0.003906252793967724,0.001953126396983862,-0.003906252793967724
5316,0.004821780603379011,0.012573251500725746,0.0006103520281612873,0.9999396800994873,-0.23046883940696716,0.08593752980232239,9.636722564697266,0.007812505587935448,-0.001953126396983862,0.001953126396983862
5322,0.0048828162252902985,0.012512216344475746,0.0005493168137036264,0.9999396800994873,-0.23046883940696716,0.08593752980232239,9.636722564697266,0.007812505587935448,-0.001953126396983862,0.001953126396983862
5328,0.0048828162252902985,0.012512216344475746,0.0005493168137036264,0.9999396800994873,-0.23828133940696716,0.07812502980232239,9.667972564697266,0.007812505587935448,-0.001953126396983862,0.001953126396983862
5334,0.0048828162252902985,0.012512216344475746,0.0005493168137036264,0.9999396800994873,-0.23828133940696716,0.07812502980232239,9.667972564697266,-0.005859379190951586,-0.001953126396983862,0.001953126396983862
5345,0.0048828162252902985,0.012512216344475746,0.0005493168137036264,0.9999396800994873,-0.23828133940696716,0.07812502980232239,9.667972564697266,-0.003906252793967724,0.001953126396983862,0.001953126396983862
5349,0.0048828162252902985,0.012512216344475746,0.0005493168137036264,0.9999396800994873,-0.23828133940696716,0.08593752980232239,9.664066314697266,-0.003906252793967724,0.001953126396983862,0.001953126396983862
5362,0.0048828162252902985,0.012512216344475746,0.0005493168137036264,0.9999396800994873,-0.23828133940696716,0.07812502980232239,9.640628814697266,-0.003906252793967724,0.001953126396983862,0.001953126396983862
5367,0.0048828162252902985,0.012512216344475746,0.0005493168137036264,0.9999396800994873,-0.23828133940696716,0.07812502980232239,9.667972564697266,-0.003906252793967724,0.001953126396983862,0.001953126396983862
5373,0.0048828162252902985,0.012512216344475746,0.0005493168137036264,0.9999396800994873,-0.23828133940696716,0.07812502980232239,9.667972564697266,-0.003906252793967724,-0.001953126396983862,0.001953126396983862
5379,0.0048828162252902985,0.012512216344475746,0.0005493168137036264,0.9999396800994873,-0.23828133940696716,0.07812502980232239,9.667972564697266,-0.003906252793967724,-0.007812505587935448,0.003906252793967724
5385,0.0048828162252902985,0.012512216344475746,0.0005493168137036264,0.9999396800994873,-0.23828133940696716,0.07812502980232239,9.667972564697266,-0.003906252793967724,0.0,0.001953126396983862
5392,0.0048828162252902985,0.012451181188225746,0.0006103520281612873,0.9999396800994873,-0.23828133940696716,0.07812502980232239,9.667972564697266,-0.003906252793967724,0.0,0.001953126396983862
5397,0.0048828162252902985,0.012451181188225746,0.0006103520281612873,0.9999396800994873,-0.23046883940696716,0.09765628725290298,9.664066314697266,-0.003906252793967724,0.0,0.001953126396983862
5407,0.0048828162252902985,0.012451181188225746,0.0006103520281612873,0.9999396800994873,-0.23046883940696716,0.09765628725290298,9.664066314697266,0.001953126396983862,0.001953126396983862,-0.003906252793967724
5412,0.0048828162252902985,0.012451181188225746,0.0006103520281612873,0.9999396800994873,-0.23046883940696716,0.09765628725290298,9.664066314697266,0.001953126396983862,0.001953126396983862,-0.003906252793967724
5428,0.0048828162252902985,0.012451181188225746,0.0006103520281612873,0.9999396800994873,-0.23046883940696716,0.09765628725290298,9.664066314697266,0.001953126396983862,0.007812505587935448,-0.003906252793967724
5437,0.0048828162252902985,0.012451181188225746,0.0006103520281612873,0.9999396800994873,-0.23046883940696716,0.09765628725290298,9.664066314697266,-0.009765632450580597,0.0,0.001953126396983862
5450,0.0048828162252902985,0.012451181188225746,0.0006103520281612873,0.9999396800994873,-0.23046883940696716,0.09765628725290298,9.664066314697266,0.0,-0.003906252793967724,-0.003906252793967724
5456,0.0048828162252902985,0.012451181188225746,0.0006103520281612873,0.9999396800994873,-0.23046883940696716,0.09765628725290298,9.664066314697266,0.0,-0.003906252793967724,-0.003906252793967724
5462,0.0048828162252902985,0.012451181188225746,0.0006103520281612873,0.9999396800994873,-0.23046883940696716,0.09765628725290298,9.664066314697266,-0.003906252793967724,0.001953126396983862,0.001953126396983862
5468,0.0048828162252902985,0.012451181188225746,0.0006103520281612873,0.9999396800994873,-0.23046883940696716,0.09765628725290298,9.664066314697266,-0.005859379190951586,0.001953126396983862,-0.003906252793967724
5476,0.0048828162252902985,0.012451181188225746,0.0006103520281612873,0.9999396800994873,-0.23046883940696716,0.09765628725290298,9.664066314697266,-0.003906252793967724,-0.001953126396983862,-0.003906252793967724
5482,0.0048828162252902985,0.012451181188225746,0.0006103520281612873,0.9999396800994873,-0.23046883940696716,0.09765628725290298,9.664066314697266,-0.003906252793967724,0.003906252793967724,0.005859379190951586
5487,0.0048828162252902985,0.012451181188225746,0.0006103520281612873,0.9999396800994873,-0.23046883940696716,0.09765628725290298,9.664066314697266,-0.001953126396983862,-0.001953126396983862,-0.003906252793967724
5497,0.0048828162252902985,0.012451181188225746,0.0006103520281612873,0.9999396800994873,-0.23046883940696716,0.09765628725290298,9.664066314697266,-0.001953126396983862,0.0,0.001953126396983862
5502,0.0048828162252902985,0.012451181188225746,0.0006103520281612873,0.9999396800994873,-0.23828133940696716,0.09765628725290298,9.636722564697266,-0.001953126396983862,0.0,0.001953126396983862
5508,0.0048828162252902985,0.012451181188225746,0.0006103520281612873,0.9999396800994873,-0.23828133940696716,0.09765628725290298,9.636722564697266,0.0,0.003906252793967724,-0.003906252793967724
5515,0.0048828162252902985,0.012451181188225746,0.0006103520281612873,0.9999396800994873,-0.23828133940696716,0.09765628725290298,9.636722564697266,0.0,0.003906252793967724,-0.001953126396983862
5520,0.0048828162252902985,0.012451181188225746,0.0006103520281612873,0.9999396800994873,-0.27734383940696716,0.07812502980232239,9.675785064697266,0.0,0.003906252793967724,-0.001953126396983862
5526,0.0048828162252902985,0.012451181188225746,0.0006103520281612873,0.9999396800994873,-0.23046883940696716,0.09765628725290298,9.648441314697266,0.0,0.003906252793967724,-0.001953126396983862
5532,0.0048828162252902985,0.012451181188225746,0.0006103520281612873,0.9999396800994873,-0.23046883940696716,0.09765628725290298,9.648441314697266,-0.005859379190951586,0.0,0.0
5542,0.0048828162252902985,0.012451181188225746,0.0006103520281612873,0.9999396800994873,-0.23046883940696716,0.09765628725290298,9.648441314697266,0.005859379190951586,0.0,0.003906252793967724
5547,0.0048828162252902985,0.012451181188225746,0.0006103520281612873,0.9999396800994873,-0.23046883940696716,0.10546878725290298,9.632816314697266,0.005859379190951586,0.0,0.003906252793967724
5557,0.0048828162252902985,0.012451181188225746,0.0006103520281612873,0.9999396800994873,-0.23046883940696716,0.10546878725290298,9.632816314697266,0.005859379190951586,-0.009765632450580597,0.003906252793967724
5562,0.0048828162252902985,0.012451181188225746,0.0006103520281612873,0.9999396800994873,-0.25000008940696716,0.08593752980232239,9.675785064697266,0.005859379190951586,-0.009765632450580597,0.003906252793967724
5572,0.0048828162252902985,0.012451181188225746,0.0006103520281612873,0.9999396800994873,-0.25000008940696716,0.08593752980232239,9.675785064697266,0.003906252793967724,-0.003906252793967724,0.001953126396983862
5576,0.0048828162252902985,0.012451181188225746,0.0006103520281612873,0.9999396800994873,-0.25781258940696716,0.09765628725290298,9.664066314697266,0.003906252793967724,-0.003906252793967724,0.001953126396983862
5587,0.0048828162252902985,0.012451181188225746,0.0006103520281612873,0.9999396800994873,-0.25781258940696716,0.09765628725290298,9.664066314697266,0.007812505587935448,-0.001953126396983862,0.001953126396983862
5592,0.0048828162252902985,0.012451181188225746,0.0006103520281612873,0.9999396800994873,-0.23828133940696716,0.09765628725290298,9.648441314697266,0.007812505587935448,-0.001953126396983862,0.001953126396983862
5602,0.0048828162252902985,0.012451181188225746,0.0006103520281612873,0.9999396800994873,-0.23828133940696716,0.09765628725290298,9.648441314697266,0.001953126396983862,0.001953126396983862,-0.001953126396983862
5606,0.0048828162252902985,0.012451181188225746,0.0006103520281612873,0.9999396800994873,-0.23828133940696716,0.09765628725290298,9.648441314697266,0.001953126396983862,0.001953126396983862,-0.001953126396983862
5619,0.0048828162252902985,0.012451181188225746,0.0006103520281612873,0.9999396800994873,-0.23046883940696716,0.07812502980232239,9.652347564697266,0.001953126396983862,0.001953126396983862,-0.001953126396983862
5624,0.0048828162252902985,0.012451181188225746,0.0006103520281612873,0.9999396800994873,-0.25781258940696716,0.11328128725290298,9.632816314697266,0.001953126396983862,0.001953126396983862,-0.001953126396983862
5629,0.0048828162252902985,0.012451181188225746,0.0006103520281612873,0.9999396800994873,-0.25781258940696716,0.11328128725290298,9.632816314697266,0.001953126396983862,0.001953126396983862,-0.001953126396983862
5636,0.0048828162252902985,0.012451181188225746,0.0006103520281612873,0.9999396800994873,-0.25781258940696716,0.11328128725290298,9.632816314697266,0.003906252793967724,-0.003906252793967724,0.0
5645,0.0048828162252902985,0.012451181188225746,0.0006103520281612873,0.9999396800994873,-0.25781258940696716,0.11328128725290298,9.632816314697266,0.0,-0.001953126396983862,0.001953126396983862
5650,0.0048828162252902985,0.012451181188225746,0.0006103520281612873,0.9999396800994873,-0.25781258940696716,0.11328128725290298,9.632816314697266,0.0,0.001953126396983862,-0.001953126396983862
5658,0.0048828162252902985,0.012451181188225746,0.0006103520281612873,0.9999396800994873,-0.23828133940696716,0.08593752980232239,9.648441314697266,0.0,0.001953126396983862,-0.001953126396983862
5664,0.0048828162252902985,0.012451181188225746,0.0006103520281612873,0.9999396800994873,-0.23828133940696716,0.08593752980232239,9.648441314697266,0.003906252793967724,-0.007812505587935448,-0.001953126396983862
5670,0.0048828162252902985,0.012451181188225746,0.0006103520281612873,0.9999396800994873,-0.23828133940696716,0.08593752980232239,9.648441314697266,0.003906252793967724,-0.003906252793967724,-0.001953126396983862
5681,0.0048828162252902985,0.012451181188225746,0.0006103520281612873,0.9999396800994873,-0.23828133940696716,0.08593752980232239,9.648441314697266,0.005859379190951586,0.0,0.0
5686,0.0048828162252902985,0.012451181188225746,0.0006103520281612873,0.9999396800994873,-0.25781258940696716,0.10546878725290298,9.632816314697266,0.005859379190951586,0.0,0.0
5700,0.0048828162252902985,0.012451181188225746,0.0006103520281612873,0.9999396800994873,-0.25781258940696716,0.10546878725290298,9.632816314697266,0.0,0.003906252793967724,0.0
5706,0.0048828162252902985,0.012451181188225746,0.0006103520281612873,0.9999396800994873,-0.25781258940696716,0.09765628725290298,9.664066314697266,0.0,0.003906252793967724,0.0
5711,0.0048828162252902985,0.012451181188225746,0.0006103520281612873,0.9999396800994873,-0.25781258940696716,0.09765628725290298,9.664066314697266,-0.003906252793967724,0.0,0.001953126396983862
5718,0.0048828162252902985,0.012451181188225746,0.0006103520281612873,0.9999396800994873,-0.25781258940696716,0.09765628725290298,9.664066314697266,0.001953126396983862,0.001953126396983862,0.003906252793967724
5724,0.0048828162252902985,0.012451181188225746,0.0006103520281612873,0.9999396800994873,-0.21875007450580597,0.10546878725290298,9.632816314697266,0.001953126396983862,0.001953126396983862,0.003906252793967724
5730,0.0048828162252902985,0.012451181188225746,0.0006103520281612873,0.9999396800994873,-0.26953133940696716,0.08593752980232239,9.640628814697266,0.001953126396983862,0.001953126396983862,0.003906252793967724
5738,0.0048828162252902985,0.012451181188225746,0.0006103520281612873,0.9999396800994873,-0.26953133940696716,0.08593752980232239,9.640628814697266,-0.001953126396983862,-0.003906252793967724,-0.001953126396983862
5749,0.0048828162252902985,0.012451181188225746,0.0006103520281612873,0.9999396800994873,-0.23046883940696716,0.08593752980232239,9.644535064697266,-0.001953126396983862,-0.003906252793967724,-0.001953126396983862
5757,0.0048828162252902985,0.012451181188225746,0.0006103520281612873,0.9999396800994873,-0.25000008940696716,0.10546878725290298,9.671878814697266,-0.001953126396983862,-0.003906252793967724,-0.001953126396983862
5763,0.0048828162252902985,0.012451181188225746,0.0006103520281612873,0.9999396800994873,-0.25000008940696716,0.10546878725290298,9.671878814697266,-0.003906252793967724,0.0,0.001953126396983862
5768,0.0048828162252902985,0.012451181188225746,0.0006103520281612873,0.9999396800994873,-0.25000008940696716,0.07812502980232239,9.691410064697266,-0.003906252793967724,0.0,0.001953126396983862
5774,0.0048828162252902985,0.012451181188225746,0.0006103520281612873,0.9999396800994873,-0.25000008940696716,0.07812502980232239,9.691410064697266,0.0,-0.001953126396983862,0.001953126396983862
5784,0.0048828162252902985,0.012451181188225746,0.0006103520281612873,0.9999396800994873,-0.25000008940696716,0.07812502980232239,9.691410064697266,0.003906252793967724,0.001953126396983862,-0.001953126396983862
5792,0.0048828162252902985,0.012451181188225746,0.0006103520281612873,0.9999396800994873,-0.23828133940696716,0.09765628725290298,9.648441314697266,0.003906252793967724,0.001953126396983862,-0.001953126396983862
5797,0.0048828162252902985,0.012451181188225746,0.0006103520281612873,0.9999396800994873,-0.23828133940696716,0.09765628725290298,9.648441314697266,-0.005859379190951586,0.0,0.003906252793967724
5804,0.0048828162252902985,0.012451181188225746,0.0006103520281612873,0.9999396800994873,-0.23828133940696716,0.10546878725290298,9.628910064697266,-0.005859379190951586,0.0,0.003906252793967724
5818,0.0048828162252902985,0.012451181188225746,0.0006103520281612873,0.9999396800994873,-0.23828133940696716,0.10546878725290298,9.628910064697266,0.005859379190951586,-0.005859379190951586,-0.001953126396983862
5829,0.0048828162252902985,0.012451181188225746,0.0006103520281612873,0.9999396800994873,-0.23828133940696716,0.10546878725290298,9.628910064697266,0.003906252793967724,0.003906252793967724,0.005859379190951586
5834,0.0048828162252902985,0.012451181188225746,0.0006103520281612873,0.9999396800994873,-0.25781258940696716,0.12500004470348358,9.664066314697266,0.003906252793967724,0.003906252793967724,0.005859379190951586
5839,0.0048828162252902985,0.012451181188225746,0.0006103520281612873,0.9999396800994873,-0.25781258940696716,0.12500004470348358,9.664066314697266,-0.003906252793967724,-0.003906252793967724,-0.003906252793967724
5847,0.0048828162252902985,0.012451181188225746,0.0006103520281612873,0.9999396800994873,-0.25781258940696716,0.12500004470348358,9.664066314697266,-0.007812505587935448,-0.013671884313225746,0.003906252793967724
5853,0.0048828162252902985,0.012451181188225746,0.0006103520281612873,0.9999396800994873,-0.27734383940696716,0.06640627235174179,9.722660064697266,-0.007812505587935448,-0.013671884313225746,0.003906252793967724
5858,0.0048828162252902985,0.012451181188225746,0.0006103520281612873,0.9999396800994873,-0.27734383940696716,0.06640627235174179,9.722660064697266,0.0,-0.03710940107703209,0.001953126396983862
5869,0.0048828162252902985,0.012451181188225746,0.0006103520281612873,0.9999396800994873,-0.27734383940696716,0.06640627235174179,9.722660064697266,-0.007812505587935448,-0.025390643626451492,0.003906252793967724
5873,0.0048828162252902985,0.012451181188225746,0.0006103520281612873,0.9999396800994873,-0.21875007450580597,0.07812502980232239,9.687503814697266,-0.007812505587935448,-0.025390643626451492,0.003906252793967724
5883,0.0048828162252902985,0.012451181188225746,0.0006103520281612873,0.9999396800994873,-0.21875007450580597,0.07812502980232239,9.687503814697266,0.0,-0.025390643626451492,0.001953126396983862
5889,0.0048828162252902985,0.012451181188225746,0.0006103520281612873,0.9999396800994873,-0.23828133940696716,0.10546878725290298,9.687503814697266,0.0,-0.025390643626451492,0.001953126396983862
5899,0.0048828162252902985,0.012451181188225746,0.0006103520281612873,0.9999396800994873,-0.23828133940696716,0.10546878725290298,9.687503814697266,-0.003906252793967724,-0.025390643626451492,0.003906252793967724
5904,0.0048828162252902985,0.012451181188225746,0.0006103520281612873,0.9999396800994873,-0.19921882450580597,0.10546878725290298,9.664066314697266,-0.003906252793967724,-0.025390643626451492,0.003906252793967724
5910,0.0048828162252902985,0.012451181188225746,0.0006103520281612873,0.9999396800994873,-0.19921882450580597,0.10546878725290298,9.664066314697266,-0.003906252793967724,-0.04101565480232239,0.005859379190951586
5916,0.004699710290879011,0.011535652913153172,0.0006103520281612873,0.9999396800994873,-0.19921882450580597,0.10546878725290298,9.664066314697266,-0.003906252793967724,-0.04101565480232239,0.005859379190951586
5922,0.004699710290879011,0.011535652913153172,0.0006103520281612873,0.9999396800994873,-0.21875007450580597,0.09765628725290298,9.636722564697266,-0.003906252793967724,-0.04101565480232239,0.005859379190951586
5927,0.004699710290879011,0.011535652913153172,0.0006103520281612873,0.9999396800994873,-0.21875007450580597,0.09765628725290298,9.636722564697266,-0.007812505587935448,-0.03125002235174179,-0.001953126396983862
5934,0.004699710290879011,0.011535652913153172,0.0006103520281612873,0.9999396800994873,-0.21875007450580597,0.09765628725290298,9.636722564697266,-0.009765632450580597,-0.03125002235174179,-0.001953126396983862
5939,0.004699710290879011,0.011535652913153172,0.0006103520281612873,0.9999396800994873,-0.21875007450580597,0.09765628725290298,9.636722564697266,-0.003906252793967724,-0.027343768626451492,0.003906252793967724
5946,0.004699710290879011,0.011535652913153172,0.0006103520281612873,0.9999396800994873,-0.21875007450580597,0.09765628725290298,9.636722564697266,0.001953126396983862,-0.015625011175870895,-0.005859379190951586
5952,0.004699710290879011,0.011535652913153172,0.0006103520281612873,0.9999396800994873,-0.16406255960464478,0.09765628725290298,9.644535064697266,0.001953126396983862,-0.015625011175870895,-0.005859379190951586
5958,0.004699710290879011,0.011535652913153172,0.0006103520281612873,0.9999396800994873,-0.16406255960464478,0.09765628725290298,9.644535064697266,0.003906252793967724,0.003906252793967724,0.0
5963,0.004699710290879011,0.011535652913153172,0.0006103520281612873,0.9999396800994873,-0.16406255960464478,0.09765628725290298,9.644535064697266,0.0,0.011718758381903172,-0.001953126396983862
5970,0.004699710290879011,0.011535652913153172,0.0006103520281612873,0.9999396800994873,-0.16406255960464478,0.09765628725290298,9.644535064697266,0.0,0.011718758381903172,-0.003906252793967724
5977,0.004699710290879011,0.011535652913153172,0.0006103520281612873,0.9999396800994873,-0.23828133940696716,0.07812502980232239,9.687503814697266,0.0,0.011718758381903172,-0.003906252793967724
5982,0.004699710290879011,0.011535652913153172,0.0006103520281612873,0.9999396800994873,-0.23828133940696716,0.07812502980232239,9.687503814697266,-0.005859379190951586,0.001953126396983862,-0.001953126396983862
5990,0.004699710290879011,0.011535652913153172,0.0006103520281612873,0.9999396800994873,-0.19921882450580597,0.07812502980232239,9.671878814697266,-0.005859379190951586,0.001953126396983862,-0.001953126396983862
5995,0.004699710290879011,0.011535652913153172,0.0006103520281612873,0.9999396800994873,-0.19921882450580597,0.07812502980232239,9.671878814697266,0.009765632450580597,-0.003906252793967724,0.003906252793967724
6005,0.004699710290879011,0.011535652913153172,0.0006103520281612873,0.9999396800994873,-0.17187505960464478,0.09765628725290298,9.644535064697266,0.009765632450580597,-0.003906252793967724,0.003906252793967724
6010,0.004699710290879011,0.011535652913153172,0.0006103520281612873,0.9999396800994873,-0.17187505960464478,0.09765628725290298,9.644535064697266,-0.003906252793967724,0.009765632450580597,-0.001953126396983862
6016,0.004699710290879011,0.011535652913153172,0.0006103520281612873,0.9999396800994873,-0.21875007450580597,0.07812502980232239,9.628910064697266,-0.003906252793967724,0.009765632450580597,-0.001953126396983862
6022,0.004699710290879011,0.011535652913153172,0.0006103520281612873,0.9999396800994873,-0.21093757450580597,0.09765628725290298,9.667972564697266,-0.003906252793967724,0.009765632450580597,-0.001953126396983862
6031,0.004699710290879011,0.011535652913153172,0.0006103520281612873,0.9999396800994873,-0.21093757450580597,0.09765628725290298,9.667972564697266,0.003906252793967724,0.009765632450580597,0.0
6037,0.004577639978379011,0.011230477131903172,0.0006713871844112873,0.9999396800994873,-0.21093757450580597,0.09765628725290298,9.667972564697266,0.003906252793967724,0.009765632450580597,0.0
6047,0.004577639978379011,0.011230477131903172,0.0006713871844112873,0.9999396800994873,-0.21093757450580597,0.09765628725290298,9.667972564697266,0.003906252793967724,0.011718758381903172,-0.003906252793967724
6051,0.004577639978379011,0.011230477131903172,0.0006713871844112873,0.9999396800994873,-0.19921882450580597,0.08593752980232239,9.675785064697266,0.003906252793967724,0.011718758381903172,-0.003906252793967724
6062,0.004577639978379011,0.011230477131903172,0.0006713871844112873,0.9999396800994873,-0.19921882450580597,0.08593752980232239,9.675785064697266,0.005859379190951586,0.009765632450580597,-0.001953126396983862
6074,0.004577639978379011,0.011230477131903172,0.0006713871844112873,0.9999396800994873,-0.19921882450580597,0.08593752980232239,9.675785064697266,0.009765632450580597,0.009765632450580597,0.0
6079,0.004577639978379011,0.011230477131903172,0.0006713871844112873,0.9999396800994873,-0.19921882450580597,0.08593752980232239,9.675785064697266,0.003906252793967724,0.019531264901161194,-0.001953126396983862
6085,0.004577639978379011,0.011230477131903172,0.0006713871844112873,0.9999396800994873,-0.19140632450580597,0.09765628725290298,9.636722564697266,0.003906252793967724,0.019531264901161194,-0.001953126396983862
6091,0.004577639978379011,0.011230477131903172,0.0006713871844112873,0.9999396800994873,-0.19140632450580597,0.09765628725290298,9.636722564697266,0.003906252793967724,0.027343768626451492,0.001953126396983862
6102,0.004577639978379011,0.011230477131903172,0.0006713871844112873,0.9999396800994873,-0.19140632450580597,0.09765628725290298,9.636722564697266,0.009765632450580597,0.025390643626451492,0.001953126396983862
6107,0.004577639978379011,0.011230477131903172,0.0006713871844112873,0.9999396800994873,-0.21875007450580597,0.07812502980232239,9.640628814697266,0.009765632450580597,0.025390643626451492,0.001953126396983862
6112,0.004577639978379011,0.011230477131903172,0.0006713871844112873,0.9999396800994873,-0.21875007450580597,0.07812502980232239,9.640628814697266,0.001953126396983862,0.021484389901161194,0.003906252793967724
6117,0.004577639978379011,0.011230477131903172,0.0006713871844112873,0.9999396800994873,-0.21875007450580597,0.07812502980232239,9.640628814697266,0.001953126396983862,0.027343768626451492,-0.001953126396983862
6124,0.004577639978379011,0.011230477131903172,0.0006713871844112873,0.9999396800994873,-0.21875007450580597,0.07812502980232239,9.640628814697266,0.001953126396983862,0.03515627607703209,-0.001953126396983862
6130,0.004577639978379011,0.011230477131903172,0.0006713871844112873,0.9999396800994873,-0.23046883940696716,0.06640627235174179,9.687503814697266,0.001953126396983862,0.03515627607703209,-0.001953126396983862
6136,0.004577639978379011,0.011230477131903172,0.0006713871844112873,0.9999396800994873,-0.23046883940696716,0.06640627235174179,9.687503814697266,0.005859379190951586,0.04296877980232239,0.001953126396983862
6141,0.004577639978379011,0.011230477131903172,0.0006713871844112873,0.9999396800994873,-0.23046883940696716,0.06640627235174179,9.687503814697266,0.015625011175870895,0.04296877980232239,-0.001953126396983862
6149,0.004577639978379011,0.011230477131903172,0.0006713871844112873,0.9999396800994873,-0.23046883940696716,0.06640627235174179,9.687503814697266,0.013671884313225746,0.050781287252902985,-0.001953126396983862
6155,0.004577639978379011,0.011230477131903172,0.0006713871844112873,0.9999396800994873,-0.26953133940696716,0.10546878725290298,9.648441314697266,0.013671884313225746,0.050781287252902985,-0.001953126396983862
6160,0.004577639978379011,0.011230477131903172,0.0006713871844112873,0.9999396800994873,-0.26953133940696716,0.10546878725290298,9.648441314697266,-0.003906252793967724,0.03515627607703209,0.003906252793967724
6168,0.004577639978379011,0.011230477131903172,0.0006713871844112873,0.9999396800994873,-0.26953133940696716,0.10546878725290298,9.648441314697266,0.005859379190951586,0.027343768626451492,-0.005859379190951586
6174,0.004577639978379011,0.011230477131903172,0.0006713871844112873,0.9999396800994873,-0.26953133940696716,0.10546878725290298,9.648441314697266,0.001953126396983862,0.03125002235174179,0.005859379190951586
6180,0.004577639978379011,0.011230477131903172,0.0006713871844112873,0.9999396800994873,-0.26953133940696716,0.08593752980232239,9.640628814697266,0.001953126396983862,0.03125002235174179,0.005859379190951586
6190,0.004577639978379011,0.011230477131903172,0.0006713871844112873,0.9999396800994873,-0.26953133940696716,0.08593752980232239,9.640628814697266,0.001953126396983862,0.023437516763806343,0.001953126396983862
6195,0.004577639978379011,0.011230477131903172,0.0006713871844112873,0.9999396800994873,-0.25781258940696716,0.10546878725290298,9.652347564697266,0.001953126396983862,0.023437516763806343,0.001953126396983862
6205,0.004577639978379011,0.011230477131903172,0.0006713871844112873,0.9999396800994873,-0.25781258940696716,0.10546878725290298,9.652347564697266,0.003906252793967724,0.027343768626451492,-0.003906252793967724
6210,0.004577639978379011,0.011230477131903172,0.0006713871844112873,0.9999396800994873,-0.23828133940696716,0.07812502980232239,9.652347564697266,0.003906252793967724,0.027343768626451492,-0.003906252793967724
6228,0.004577639978379011,0.011230477131903172,0.0006713871844112873,0.9999396800994873,-0.26953133940696716,0.09765628725290298,9.632816314697266,0.003906252793967724,0.027343768626451492,-0.003906252793967724
6233,0.004577639978379011,0.011230477131903172,0.0006713871844112873,0.9999396800994873,-0.28906258940696716,0.10546878725290298,9.609378814697266,0.003906252793967724,0.027343768626451492,-0.003906252793967724
6239,0.004577639978379011,0.011230477131903172,0.0006713871844112873,0.9999396800994873,-0.28906258940696716,0.10546878725290298,9.609378814697266,0.007812505587935448,0.048828158527612686,-0.003906252793967724
6245,0.004577639978379011,0.011230477131903172,0.0006713871844112873,0.9999396800994873,-0.28906258940696716,0.10546878725290298,9.609378814697266,0.007812505587935448,0.050781287252902985,-0.001953126396983862
6255,0.004577639978379011,0.011230477131903172,0.0006713871844112873,0.9999396800994873,-0.28906258940696716,0.10546878725290298,9.609378814697266,0.001953126396983862,0.048828158527612686,0.0
6259,0.004577639978379011,0.011230477131903172,0.0006713871844112873,0.9999396800994873,-0.28906258940696716,0.08593752980232239,9.687503814697266,0.001953126396983862,0.048828158527612686,0.0
6273,0.004577639978379011,0.011230477131903172,0.0006713871844112873,0.9999396800994873,-0.36328136920928955,0.08593752980232239,9.679691314697266,0.001953126396983862,0.048828158527612686,0.0
6280,0.004577639978379011,0.011230477131903172,0.0006713871844112873,0.9999396800994873,-0.41015639901161194,0.18359380960464478,9.648441314697266,0.001953126396983862,0.048828158527612686,0.0
6290,0.004577639978379011,0.011230477131903172,0.0006713871844112873,0.9999396800994873,-0.41015639901161194,0.18359380960464478,9.648441314697266,0.003906252793967724,0.03125002235174179,0.021484389901161194
6294,0.004577639978379011,0.011230477131903172,0.0006713871844112873,0.9999396800994873,-0.5273439288139343,0.5156251788139343,9.601566314697266,0.003906252793967724,0.03125002235174179,0.021484389901161194
6300,0.0051879920065402985,0.015136729925870895,0.0008544927695766091,0.9998786449432373,-0.5273439288139343,0.5156251788139343,9.601566314697266,0.003906252793967724,0.03125002235174179,0.021484389901161194
6305,0.0051879920065402985,0.015136729925870895,0.0008544927695766091,0.9998786449432373,-0.5273439288139343,0.5156251788139343,9.601566314697266,0.001953126396983862,0.009765632450580597,0.05664066597819328
6311,0.0051879920065402985,0.015136729925870895,0.0008544927695766091,0.9998786449432373,-0.5273439288139343,0.5156251788139343,9.601566314697266,0.0,0.001953126396983862,0.07031255215406418
6319,0.0051879920065402985,0.015136729925870895,0.0008544927695766091,0.9998786449432373,-0.31640636920928955,0.23828133940696716,9.679691314697266,0.0,0.001953126396983862,0.07031255215406418
6328,0.0051879920065402985,0.015136729925870895,0.0008544927695766091,0.9998786449432373,-0.31640636920928955,0.23828133940696716,9.679691314697266,-0.005859379190951586,-0.011718758381903172,0.054687537252902985
6334,0.0051879920065402985,0.015136729925870895,0.0008544927695766091,0.9998786449432373,-0.11328128725290298,-0.039062514901161194,9.636722564697266,-0.005859379190951586,-0.011718758381903172,0.054687537252902985
6343,0.0051879920065402985,0.015136729925870895,0.0008544927695766091,0.9998786449432373,-0.11328128725290298,-0.039062514901161194,9.636722564697266,0.001953126396983862,0.003906252793967724,0.023437516763806343
6349,0.0051879920065402985,0.015136729925870895,0.0008544927695766091,0.9998786449432373,-0.21093757450580597,0.019531257450580597,9.644535064697266,0.001953126396983862,0.003906252793967724,0.023437516763806343
6354,0.0051879920065402985,0.015136729925870895,0.0008544927695766091,0.9998786449432373,-0.21093757450580597,0.019531257450580597,9.644535064697266,0.001953126396983862,0.021484389901161194,0.007812505587935448
6362,0.0051879920065402985,0.015136729925870895,0.0008544927695766091,0.9998786449432373,-0.21093757450580597,0.019531257450580597,9.644535064697266,0.001953126396983862,0.019531264901161194,0.003906252793967724
6371,0.0051879920065402985,0.015136729925870895,0.0008544927695766091,0.9998786449432373,-0.34375011920928955,0.23046883940696716,9.687503814697266,0.001953126396983862,0.019531264901161194,0.003906252793967724
6376,0.0051879920065402985,0.015136729925870895,0.0008544927695766091,0.9998786449432373,-0.34375011920928955,0.23046883940696716,9.687503814697266,0.001953126396983862,0.0,0.003906252793967724
6382,0.0051879920065402985,0.015136729925870895,0.0008544927695766091,0.9998786449432373,-0.36328136920928955,0.39453139901161194,9.519535064697266,0.001953126396983862,0.0,0.003906252793967724
6387,0.0051879920065402985,0.015136729925870895,0.0008544927695766091,0.9998786449432373,-0.36328136920928955,0.39453139901161194,9.519535064697266,0.001953126396983862,-0.007812505587935448,0.005859379190951586
6396,0.0051879920065402985,0.015136729925870895,0.0008544927695766091,0.9998786449432373,-0.36328136920928955,0.39453139901161194,9.519535064697266,0.003906252793967724,-0.009765632450580597,0.013671884313225746
6403,0.0051879920065402985,0.015136729925870895,0.0008544927695766091,0.9998786449432373,-0.36328136920928955,0.39453139901161194,9.519535064697266,-0.005859379190951586,-0.013671884313225746,0.003906252793967724
6409,0.0051879920065402985,0.015136729925870895,0.0008544927695766091,0.9998786449432373,-0.26953133940696716,0.4687501788139343,9.511722564697266,-0.005859379190951586,-0.013671884313225746,0.003906252793967724
6414,0.0051879920065402985,0.015136729925870895,0.0008544927695766091,0.9998786449432373,-0.26953133940696716,0.4687501788139343,9.511722564697266,0.0,-0.009765632450580597,0.003906252793967724
6421,0.0051879920065402985,0.015136729925870895,0.0008544927695766091,0.9998786449432373,-0.26953133940696716,0.4687501788139343,9.511722564697266,-0.001953126396983862,-0.001953126396983862,0.007812505587935448
6427,0.0051879920065402985,0.015136729925870895,0.0008544927695766091,0.9998786449432373,-0.39453139901161194,0.4960939288139343,9.640628814697266,-0.001953126396983862,-0.001953126396983862,0.007812505587935448
6433,0.0051879920065402985,0.015136729925870895,0.0008544927695766091,0.9998786449432373,-0.39453139901161194,0.4960939288139343,9.640628814697266,-0.005859379190951586,0.009765632450580597,0.009765632450580597
6438,0.0051879920065402985,0.015136729925870895,0.0008544927695766091,0.9998786449432373,-0.39453139901161194,0.4960939288139343,9.640628814697266,0.003906252793967724,0.019531264901161194,-0.001953126396983862
6449,0.0051879920065402985,0.015136729925870895,0.0008544927695766091,0.9998786449432373,-0.23828133940696716,0.08593752980232239,9.492191314697266,0.003906252793967724,0.019531264901161194,-0.001953126396983862
6454,0.0051879920065402985,0.015136729925870895,0.0008544927695766091,0.9998786449432373,-0.23828133940696716,0.08593752980232239,9.492191314697266,0.017578138038516045,0.03125002235174179,-0.019531264901161194
6461,0.0051879920065402985,0.015136729925870895,0.0008544927695766091,0.9998786449432373,-0.019531257450580597,0.5742189288139343,9.472660064697266,0.017578138038516045,0.03125002235174179,-0.019531264901161194
6466,0.0051879920065402985,0.015136729925870895,0.0008544927695766091,0.9998786449432373,-0.019531257450580597,0.5742189288139343,9.472660064697266,-0.005859379190951586,0.02929689548909664,-0.04296877980232239
6472,0.0051879920065402985,0.015136729925870895,0.0008544927695766091,0.9998786449432373,-0.019531257450580597,0.5742189288139343,9.472660064697266,0.001953126396983862,0.009765632450580597,-0.048828158527612686
6482,0.0051879920065402985,0.015136729925870895,0.0008544927695766091,0.9998786449432373,-0.019531257450580597,0.5742189288139343,9.472660064697266,0.003906252793967724,-0.009765632450580597,-0.052734412252902985
6488,0.0051879920065402985,0.015136729925870895,0.0008544927695766091,0.9998786449432373,-0.23828133940696716,0.36328136920928955,9.710941314697266,0.003906252793967724,-0.009765632450580597,-0.052734412252902985
6493,0.005981449503451586,0.015869151800870895,0.0015869152266532183,0.9998786449432373,-0.23828133940696716,0.36328136920928955,9.710941314697266,0.003906252793967724,-0.009765632450580597,-0.052734412252902985
6499,0.005981449503451586,0.015869151800870895,0.0015869152266532183,0.9998786449432373,-0.23828133940696716,0.36328136920928955,9.710941314697266,0.003906252793967724,-0.019531264901161194,-0.050781287252902985
6505,0.006042484659701586,0.015808116644620895,0.0013427743688225746,0.9998786449432373,-0.23828133940696716,0.36328136920928955,9.710941314697266,0.003906252793967724,-0.019531264901161194,-0.050781287252902985
6510,0.006042484659701586,0.015808116644620895,0.0013427743688225746,0.9998786449432373,-0.30468761920928955,0.4882814288139343,9.812503814697266,0.003906252793967724,-0.019531264901161194,-0.050781287252902985
6516,0.006042484659701586,0.015808116644620895,0.0013427743688225746,0.9998786449432373,-0.30468761920928955,0.10546878725290298,9.773441314697266,0.003906252793967724,-0.019531264901161194,-0.050781287252902985
6526,0.006042484659701586,0.015808116644620895,0.0013427743688225746,0.9998786449432373,-0.30468761920928955,0.10546878725290298,9.773441314697266,0.003906252793967724,0.015625011175870895,-0.050781287252902985
6532,0.006042484659701586,0.015808116644620895,0.0013427743688225746,0.9998786449432373,-0.31640636920928955,0.29687511920928955,9.433597564697266,0.003906252793967724,0.015625011175870895,-0.050781287252902985
6538,0.006042484659701586,0.015808116644620895,0.0013427743688225746,0.9998786449432373,-0.31640636920928955,0.29687511920928955,9.433597564697266,0.001953126396983862,0.015625011175870895,-0.048828158527612686
6545,0.006042484659701586,0.015808116644620895,0.0013427743688225746,0.9998786449432373,-0.31640636920928955,0.29687511920928955,9.433597564697266,0.003906252793967724,0.021484389901161194,-0.048828158527612686
6550,0.006042484659701586,0.015808116644620895,0.0013427743688225746,0.9998786449432373,-0.26953133940696716,0.007812502793967724,9.652347564697266,0.003906252793967724,0.021484389901161194,-0.048828158527612686
6556,0.006042484659701586,0.015808116644620895,0.0013427743688225746,0.9998786449432373,-0.26953133940696716,0.007812502793967724,9.652347564697266,0.0,0.027343768626451492,-0.027343768626451492
6562,0.006042484659701586,0.015808116644620895,0.0013427743688225746,0.9998786449432373,-0.26953133940696716,0.007812502793967724,9.652347564697266,0.005859379190951586,0.023437516763806343,-0.021484389901161194
6568,0.006042484659701586,0.015808116644620895,0.0013427743688225746,0.9998786449432373,-0.26953133940696716,0.007812502793967724,9.652347564697266,0.007812505587935448,0.015625011175870895,-0.019531264901161194
6575,0.006042484659701586,0.015808116644620895,0.0013427743688225746,0.9998786449432373,-0.42968764901161194,0.23828133940696716,9.734378814697266,0.007812505587935448,0.015625011175870895,-0.019531264901161194
6581,0.006042484659701586,0.015808116644620895,0.0013427743688225746,0.9998786449432373,-0.30468761920928955,0.15234380960464478,9.796878814697266,0.007812505587935448,0.015625011175870895,-0.019531264901161194
6586,0.006042484659701586,0.015808116644620895,0.0013427743688225746,0.9998786449432373,-0.30468761920928955,0.15234380960464478,9.796878814697266,0.005859379190951586,0.0,0.009765632450580597
6596,0.006042484659701586,0.015808116644620895,0.0013427743688225746,0.9998786449432373,-0.30468761920928955,0.15234380960464478,9.796878814697266,-0.015625011175870895,0.005859379190951586,0.017578138038516045
6600,0.006042484659701586,0.015808116644620895,0.0013427743688225746,0.9998786449432373,-0.35546886920928955,0.28906258940696716,9.738285064697266,-0.015625011175870895,0.005859379190951586,0.017578138038516045
6610,0.006042484659701586,0.015808116644620895,0.0013427743688225746,0.9998786449432373,-0.35546886920928955,0.28906258940696716,9.738285064697266,-0.005859379190951586,0.013671884313225746,0.03515627607703209
6625,0.006042484659701586,0.015808116644620895,0.0013427743688225746,0.9998786449432373,-0.35546886920928955,0.28906258940696716,9.738285064697266,-0.005859379190951586,0.005859379190951586,0.03320314735174179
6635,0.006042484659701586,0.015808116644620895,0.0013427743688225746,0.9998786449432373,-0.35546886920928955,0.28906258940696716,9.738285064697266,-0.003906252793967724,0.0,0.04101565480232239
6644,0.006042484659701586,0.015808116644620895,0.0013427743688225746,0.9998786449432373,-0.35546886920928955,0.28906258940696716,9.738285064697266,-0.005859379190951586,-0.013671884313225746,0.03710940107703209
6649,0.006042484659701586,0.015808116644620895,0.0013427743688225746,0.9998786449432373,-0.35546886920928955,0.28906258940696716,9.703128814697266,-0.005859379190951586,-0.013671884313225746,0.03710940107703209
6654,0.006042484659701586,0.015808116644620895,0.0013427743688225746,0.9998786449432373,-0.35546886920928955,0.28906258940696716,9.703128814697266,0.0,-0.003906252793967724,0.03515627607703209
6673,0.006042484659701586,0.015808116644620895,0.0013427743688225746,0.9998786449432373,-0.31640636920928955,0.21875007450580597,9.578128814697266,0.0,-0.003906252793967724,0.03515627607703209
6680,0.006835942156612873,0.016601573675870895,0.0012817392125725746,0.9998176097869873,-0.31640636920928955,0.21875007450580597,9.578128814697266,0.0,-0.003906252793967724,0.03515627607703209
6686,0.006835942156612873,0.016601573675870895,0.0012817392125725746,0.9998176097869873,-0.31640636920928955,0.39453139901161194,9.628910064697266,0.0,-0.003906252793967724,0.03515627607703209
6693,0.006835942156612873,0.016601573675870895,0.0012817392125725746,0.9998176097869873,-0.31640636920928955,0.39453139901161194,9.628910064697266,0.017578138038516045,-0.009765632450580597,0.019531264901161194
6700,0.006835942156612873,0.016601573675870895,0.0012817392125725746,0.9998176097869873,-0.21875007450580597,-0.18359380960464478,9.800785064697266,0.017578138038516045,-0.009765632450580597,0.019531264901161194
6710,0.006835942156612873,0.016601573675870895,0.0012817392125725746,0.9998176097869873,-0.21875007450580597,-0.18359380960464478,9.800785064697266,-0.001953126396983862,0.03125002235174179,0.021484389901161194
6714,0.006835942156612873,0.016601573675870895,0.0012817392125725746,0.9998176097869873,-0.38281264901161194,0.5078126788139343,9.30859661102295,-0.001953126396983862,0.03125002235174179,0.021484389901161194
6725,0.006835942156612873,0.016601573675870895,0.0012817392125725746,0.9998176097869873,-0.38281264901161194,0.5078126788139343,9.30859661102295,0.009765632450580597,0.0,0.021484389901161194
6729,0.006835942156612873,0.016601573675870895,0.0012817392125725746,0.9998176097869873,-0.36328136920928955,-0.09765628725290298,10.234378814697266,0.009765632450580597,0.0,0.021484389901161194
6739,0.006835942156612873,0.016601573675870895,0.0012817392125725746,0.9998176097869873,-0.36328136920928955,-0.09765628725290298,10.234378814697266,0.003906252793967724,0.011718758381903172,0.019531264901161194
6745,0.006835942156612873,0.016601573675870895,0.0012817392125725746,0.9998176097869873,-0.31640636920928955,-0.019531257450580597,9.683597564697266,0.003906252793967724,0.011718758381903172,0.019531264901161194
6750,0.006835942156612873,0.016601573675870895,0.0012817392125725746,0.9998176097869873,-0.31640636920928955,-0.019531257450580597,9.683597564697266,-0.001953126396983862,0.019531264901161194,0.021484389901161194
6757,0.006835942156612873,0.016601573675870895,0.0012817392125725746,0.9998176097869873,-0.31640636920928955,-0.019531257450580597,9.683597564697266,0.007812505587935448,0.021484389901161194,0.019531264901161194
6763,0.006835942156612873,0.016601573675870895,0.0012817392125725746,0.9998176097869873,-0.42187514901161194,0.06640627235174179,9.707035064697266,0.007812505587935448,0.021484389901161194,0.019531264901161194
6768,0.006835942156612873,0.016601573675870895,0.0012817392125725746,0.9998176097869873,-0.42187514901161194,0.06640627235174179,9.707035064697266,0.009765632450580597,0.021484389901161194,0.015625011175870895
6779,0.006835942156612873,0.016601573675870895,0.0012817392125725746,0.9998176097869873,-0.42187514901161194,0.06640627235174179,9.707035064697266,0.005859379190951586,0.001953126396983862,0.03125002235174179
6784,0.006835942156612873,0.016601573675870895,0.0012817392125725746,0.9998176097869873,-0.42968764901161194,0.17187505960464478,9.613285064697266,0.005859379190951586,0.001953126396983862,0.03125002235174179
6790,0.006835942156612873,0.016601573675870895,0.0012817392125725746,0.9998176097869873,-0.42968764901161194,0.17187505960464478,9.613285064697266,0.003906252793967724,-0.003906252793967724,0.027343768626451492
6796,0.006835942156612873,0.016601573675870895,0.0012817392125725746,0.9998176097869873,-0.42968764901161194,0.17187505960464478,9.613285064697266,-0.001953126396983862,0.003906252793967724,0.03320314735174179
6802,0.006835942156612873,0.016601573675870895,0.0012817392125725746,0.9998176097869873,-0.28906258940696716,-0.23046883940696716,9.628910064697266,-0.001953126396983862,0.003906252793967724,0.03320314735174179
6808,0.006835942156612873,0.016601573675870895,0.0012817392125725746,0.9998176097869873,-0.35546886920928955,0.07812502980232239,9.562503814697266,-0.001953126396983862,0.003906252793967724,0.03320314735174179
6818,0.006835942156612873,0.016601573675870895,0.0012817392125725746,0.9998176097869873,-0.35546886920928955,0.07812502980232239,9.562503814697266,0.013671884313225746,0.015625011175870895,0.04296877980232239
6823,0.006835942156612873,0.016601573675870895,0.0012817392125725746,0.9998176097869873,-0.29687511920928955,-0.06640627235174179,9.941410064697266,0.013671884313225746,0.015625011175870895,0.04296877980232239
6829,0.006835942156612873,0.016601573675870895,0.0012817392125725746,0.9998176097869873,-0.29687511920928955,-0.06640627235174179,9.941410064697266,0.019531264901161194,0.021484389901161194,0.046875033527612686
6835,0.006835942156612873,0.016601573675870895,0.0012817392125725746,0.9998176097869873,-0.29687511920928955,-0.06640627235174179,9.941410064697266,0.003906252793967724,0.015625011175870895,0.046875033527612686
6842,0.007873540744185448,0.017517102882266045,0.00354004162363708,0.9998176097869873,-0.29687511920928955,-0.06640627235174179,9.941410064697266,0.003906252793967724,0.015625011175870895,0.046875033527612686
6847,0.007873540744185448,0.017517102882266045,0.00354004162363708,0.9998176097869873,-0.27734383940696716,-0.019531257450580597,9.589847564697266,0.003906252793967724,0.015625011175870895,0.046875033527612686
6853,0.007873540744185448,0.017517102882266045,0.00354004162363708,0.9998176097869873,-0.27734383940696716,-0.019531257450580597,9.589847564697266,0.001953126396983862,0.019531264901161194,0.052734412252902985
6861,0.007873540744185448,0.017517102882266045,0.00354004162363708,0.9998176097869873,-0.27734383940696716,-0.019531257450580597,9.589847564697266,-0.009765632450580597,0.015625011175870895,0.05664066597819328
6866,0.007873540744185448,0.017517102882266045,0.00354004162363708,0.9998176097869873,-0.27734383940696716,-0.019531257450580597,9.589847564697266,-0.003906252793967724,-0.007812505587935448,0.052734412252902985
6873,0.007873540744185448,0.017517102882266045,0.00354004162363708,0.9998176097869873,-0.29687511920928955,-0.039062514901161194,9.585941314697266,-0.003906252793967724,-0.007812505587935448,0.052734412252902985
6879,0.007873540744185448,0.017517102882266045,0.00354004162363708,0.9998176097869873,-0.34375011920928955,0.07812502980232239,9.585941314697266,-0.003906252793967724,-0.007812505587935448,0.052734412252902985
6885,0.007873540744185448,0.017517102882266045,0.00354004162363708,0.9998176097869873,-0.34375011920928955,0.07812502980232239,9.585941314697266,-0.003906252793967724,0.007812505587935448,0.03906252980232239
6891,0.008117681369185448,0.017761243507266045,0.004760745447129011,0.9998176097869873,-0.34375011920928955,0.07812502980232239,9.585941314697266,-0.003906252793967724,0.007812505587935448,0.03906252980232239
6897,0.008117681369185448,0.017761243507266045,0.004760745447129011,0.9998176097869873,-0.33593761920928955,-0.007812502793967724,9.671878814697266,-0.003906252793967724,0.007812505587935448,0.03906252980232239
6903,0.008117681369185448,0.017761243507266045,0.004760745447129011,0.9998176097869873,-0.33593761920928955,-0.007812502793967724,9.671878814697266,0.0,-0.005859379190951586,0.03906252980232239
6909,0.008117681369185448,0.017761243507266045,0.004760745447129011,0.9998176097869873,-0.33593761920928955,-0.007812502793967724,9.671878814697266,-0.007812505587935448,-0.003906252793967724,0.044921908527612686
6916,0.008117681369185448,0.017761243507266045,0.004760745447129011,0.9998176097869873,-0.34375011920928955,0.16406255960464478,9.679691314697266,-0.007812505587935448,-0.003906252793967724,0.044921908527612686
6922,0.008117681369185448,0.017761243507266045,0.004760745447129011,0.9998176097869873,-0.26953133940696716,0.08593752980232239,9.710941314697266,-0.007812505587935448,-0.003906252793967724,0.044921908527612686
6927,0.008117681369185448,0.017761243507266045,0.004760745447129011,0.9998176097869873,-0.26953133940696716,0.08593752980232239,9.710941314697266,-0.005859379190951586,0.009765632450580597,0.044921908527612686
6937,0.008117681369185448,0.017761243507266045,0.004760745447129011,0.9998176097869873,-0.26953133940696716,0.08593752980232239,9.710941314697266,0.007812505587935448,0.009765632450580597,0.03906252980232239
6942,0.008117681369185448,0.017761243507266045,0.004760745447129011,0.9998176097869873,-0.30468761920928955,-0.06640627235174179,9.667972564697266,0.007812505587935448,0.009765632450580597,0.03906252980232239
6948,0.008117681369185448,0.017761243507266045,0.004760745447129011,0.9998176097869873,-0.30468761920928955,-0.06640627235174179,9.667972564697266,0.005859379190951586,0.013671884313225746,0.04101565480232239
6966,0.008117681369185448,0.017761243507266045,0.004760745447129011,0.9998176097869873,-0.29687511920928955,-0.007812502793967724,9.605472564697266,0.005859379190951586,0.013671884313225746,0.04101565480232239
6971,0.008117681369185448,0.017761243507266045,0.004760745447129011,0.9998176097869873,-0.29687511920928955,-0.007812502793967724,9.605472564697266,0.011718758381903172,0.023437516763806343,0.019531264901161194
6977,0.008117681369185448,0.017761243507266045,0.004760745447129011,0.9998176097869873,-0.25000008940696716,-0.14453129470348358,9.640628814697266,0.011718758381903172,0.023437516763806343,0.019531264901161194
6986,0.008117681369185448,0.017761243507266045,0.004760745447129011,0.9998176097869873,-0.25000008940696716,-0.14453129470348358,9.640628814697266,-0.001953126396983862,0.009765632450580597,0.003906252793967724
