Timestamp,QI,QJ,QK,QR,AX,AY,AZ,GX,GY,GZ
2445,0.0,0.0,0.0,0.0,-0.23046883940696716,-0.07812502980232239,9.652347564697266,0.0,0.0,0.0
2449,0.0,0.0,0.0,0.0,-0.26953133940696716,-0.07812502980232239,9.609378814697266,0.0,0.0,0.0
2454,0.0,0.0,0.0,0.0,-0.26953133940696716,-0.11328128725290298,9.648441314697266,0.0,0.0,0.0
2459,0.0,0.0,0.0,0.0,-0.26953133940696716,-0.11328128725290298,9.648441314697266,0.0,0.0,0.0
2463,0.0,0.0,0.0,0.0,-0.23046883940696716,-0.11328128725290298,9.652347564697266,0.0,0.0,0.0
2468,0.0,0.0,0.0,0.0,-0.23046883940696716,-0.07812502980232239,9.652347564697266,0.0,0.0,0.0
2472,0.0,0.0,0.0,0.0,-0.26953133940696716,-0.11328128725290298,9.609378814697266,0.0,0.0,0.0
2479,0.0,0.0,0.0,0.0,-0.23046883940696716,-0.15234380960464478,9.652347564697266,0.0,0.0,0.0
2483,0.0,0.0,0.0,0.0,-0.23046883940696716,-0.11328128725290298,9.652347564697266,0.0,0.0,0.0
2488,0.0,0.0,0.0,0.0,-0.23046883940696716,-0.11328128725290298,9.613285064697266,0.0,0.0,0.0
2493,0.0,0.0,0.0,0.0,-0.23046883940696716,-0.11328128725290298,9.613285064697266,0.0,0.0,0.0
2497,0.0,0.0,0.0,0.0,-0.26953133940696716,-0.11328128725290298,9.609378814697266,0.0,0.0,0.0
2502,0.0,0.0,0.0,0.0,-0.23046883940696716,-0.07812502980232239,9.613285064697266,0.0,0.0,0.0
2507,0.0,0.0,0.0,0.0,-0.23046883940696716,-0.11328128725290298,9.652347564697266,0.0,0.0,0.0
2511,0.0,0.0,0.0,0.0,-0.26953133940696716,-0.11328128725290298,9.609378814697266,0.0,0.0,0.0
2516,0.0,0.0,0.0,0.0,-0.23046883940696716,-0.11328128725290298,9.613285064697266,0.0,0.0,0.0
2525,0.0,0.0,0.0,0.0,-0.23046883940696716,-0.11328128725290298,9.613285064697266,0.003906252793967724,-0.001953126396983862,0.0
2531,0.0,0.0,0.0,0.0,-0.23046883940696716,-0.11328128725290298,9.652347564697266,0.003906252793967724,-0.001953126396983862,0.0
2537,0.0,0.0,0.0,0.0,-0.23046883940696716,-0.11328128725290298,9.652347564697266,0.0,-0.003906252793967724,-0.001953126396983862
2543,0.0,0.0,0.0,0.0,-0.23046883940696716,-0.11328128725290298,9.652347564697266,0.0,-0.003906252793967724,-0.001953126396983862
2549,0.0,0.0,0.0,0.0,-0.23046883940696716,-0.11328128725290298,9.652347564697266,-0.001953126396983862,0.0,0.0
2555,0.0,0.0,0.0,0.0,-0.23046883940696716,-0.11328128725290298,9.652347564697266,-0.001953126396983862,-0.001953126396983862,0.001953126396983862
2563,-0.013000497594475746,-0.0024414081126451492,0.9570929408073425,0.2894289195537567,-0.23046883940696716,-0.11328128725290298,9.652347564697266,-0.001953126396983862,-0.001953126396983862,0.001953126396983862
2569,-0.013000497594475746,-0.0024414081126451492,0.9570929408073425,0.2894289195537567,-0.23046883940696716,-0.11328128725290298,9.613285064697266,-0.001953126396983862,-0.001953126396983862,0.001953126396983862
2575,-0.013000497594475746,-0.0024414081126451492,0.9570929408073425,0.2894289195537567,-0.26953133940696716,-0.11328128725290298,9.582035064697266,-0.001953126396983862,-0.001953126396983862,0.001953126396983862
2582,-0.013000497594475746,-0.0024414081126451492,0.9570929408073425,0.2894289195537567,-0.26953133940696716,-0.11328128725290298,9.582035064697266,-0.005859379190951586,0.005859379190951586,-0.001953126396983862
2589,-0.013000497594475746,-0.0024414081126451492,0.9570929408073425,0.2894289195537567,-0.23046883940696716,-0.11328128725290298,9.613285064697266,-0.005859379190951586,0.005859379190951586,-0.001953126396983862
2595,-0.013000497594475746,-0.0024414081126451492,0.9570929408073425,0.2894289195537567,-0.23046883940696716,-0.11328128725290298,9.613285064697266,-0.005859379190951586,0.005859379190951586,0.001953126396983862
2603,-0.013000497594475746,-0.0024414081126451492,0.9570929408073425,0.2894289195537567,-0.26953133940696716,-0.11328128725290298,9.648441314697266,-0.005859379190951586,0.005859379190951586,0.001953126396983862
2609,-0.013000497594475746,-0.0024414081126451492,0.9570929408073425,0.2894289195537567,-0.23046883940696716,-0.11328128725290298,9.613285064697266,-0.005859379190951586,0.005859379190951586,0.001953126396983862
2615,-0.013000497594475746,-0.0024414081126451492,0.9570929408073425,0.2894289195537567,-0.23046883940696716,-0.11328128725290298,9.613285064697266,-0.005859379190951586,0.001953126396983862,0.001953126396983862
2622,-0.013000497594475746,-0.0025024432688951492,0.9570929408073425,0.2894289195537567,-0.23046883940696716,-0.11328128725290298,9.613285064697266,-0.005859379190951586,0.001953126396983862,0.001953126396983862
2628,-0.013000497594475746,-0.0025024432688951492,0.9570929408073425,0.2894289195537567,-0.23046883940696716,-0.07812502980232239,9.652347564697266,-0.005859379190951586,0.001953126396983862,0.001953126396983862
2634,-0.013000497594475746,-0.0025024432688951492,0.9570929408073425,0.2894289195537567,-0.23046883940696716,-0.07812502980232239,9.652347564697266,0.001953126396983862,0.007812505587935448,0.001953126396983862
2640,-0.013061532750725746,-0.0024414081126451492,0.9570929408073425,0.2894289195537567,-0.23046883940696716,-0.07812502980232239,9.652347564697266,0.001953126396983862,0.007812505587935448,0.001953126396983862
2647,-0.013061532750725746,-0.0024414081126451492,0.9570929408073425,0.2894289195537567,-0.23046883940696716,-0.11328128725290298,9.652347564697266,0.001953126396983862,0.007812505587935448,0.001953126396983862
2653,-0.013061532750725746,-0.0024414081126451492,0.9570929408073425,0.2894289195537567,-0.23046883940696716,-0.11328128725290298,9.652347564697266,0.007812505587935448,-0.001953126396983862,-0.003906252793967724
2659,-0.013061532750725746,-0.0024414081126451492,0.9570929408073425,0.2894289195537567,-0.23046883940696716,-0.11328128725290298,9.613285064697266,0.007812505587935448,-0.001953126396983862,-0.003906252793967724
2664,-0.013061532750725746,-0.0024414081126451492,0.9570929408073425,0.2894289195537567,-0.23046883940696716,-0.11328128725290298,9.613285064697266,-0.003906252793967724,0.001953126396983862,0.0
2670,-0.013061532750725746,-0.0024414081126451492,0.9570929408073425,0.2894289195537567,-0.23046883940696716,-0.11328128725290298,9.613285064697266,-0.003906252793967724,0.001953126396983862,0.0
2677,-0.013061532750725746,-0.0024414081126451492,0.9570929408073425,0.2894289195537567,-0.23046883940696716,-0.11328128725290298,9.652347564697266,-0.003906252793967724,0.001953126396983862,0.0
2683,-0.013061532750725746,-0.0024414081126451492,0.9570929408073425,0.2894289195537567,-0.23046883940696716,-0.11328128725290298,9.652347564697266,-0.001953126396983862,0.001953126396983862,-0.005859379190951586
2689,-0.013061532750725746,-0.0024414081126451492,0.9570929408073425,0.2894289195537567,-0.23046883940696716,-0.11328128725290298,9.652347564697266,0.001953126396983862,-0.001953126396983862,-0.001953126396983862
2697,-0.013061532750725746,-0.0024414081126451492,0.9570929408073425,0.2894289195537567,-0.23046883940696716,-0.11328128725290298,9.652347564697266,0.001953126396983862,-0.001953126396983862,-0.001953126396983862
2702,-0.013061532750725746,-0.0024414081126451492,0.9570929408073425,0.2894289195537567,-0.23046883940696716,-0.11328128725290298,9.652347564697266,0.001953126396983862,0.003906252793967724,0.001953126396983862
2708,-0.013061532750725746,-0.0024414081126451492,0.9570929408073425,0.2894289195537567,-0.23046883940696716,-0.11328128725290298,9.652347564697266,-0.001953126396983862,0.001953126396983862,0.003906252793967724
2714,-0.013061532750725746,-0.0024414081126451492,0.9570929408073425,0.2894289195537567,-0.23046883940696716,-0.11328128725290298,9.652347564697266,-0.005859379190951586,0.001953126396983862,0.001953126396983862
2721,-0.013122567906975746,-0.0024414081126451492,0.9570929408073425,0.2894289195537567,-0.23046883940696716,-0.11328128725290298,9.652347564697266,-0.005859379190951586,0.001953126396983862,0.001953126396983862
2727,-0.013122567906975746,-0.0024414081126451492,0.9570929408073425,0.2894289195537567,-0.23046883940696716,-0.15234380960464478,9.613285064697266,-0.005859379190951586,0.001953126396983862,0.001953126396983862
2734,-0.013122567906975746,-0.0024414081126451492,0.9570929408073425,0.2894289195537567,-0.23046883940696716,-0.15234380960464478,9.613285064697266,-0.003906252793967724,-0.003906252793967724,0.003906252793967724
2740,-0.013122567906975746,-0.0024414081126451492,0.9570929408073425,0.2894289195537567,-0.23046883940696716,-0.07812502980232239,9.613285064697266,-0.003906252793967724,-0.003906252793967724,0.003906252793967724
2747,-0.013122567906975746,-0.0024414081126451492,0.9570929408073425,0.2894289195537567,-0.23046883940696716,-0.11328128725290298,9.652347564697266,-0.003906252793967724,-0.003906252793967724,0.003906252793967724
2752,-0.013122567906975746,-0.0024414081126451492,0.9570929408073425,0.2894289195537567,-0.23046883940696716,-0.11328128725290298,9.652347564697266,0.003906252793967724,0.0,-0.003906252793967724
2757,-0.013122567906975746,-0.0024414081126451492,0.9570929408073425,0.2894289195537567,-0.23046883940696716,-0.11328128725290298,9.652347564697266,-0.003906252793967724,0.001953126396983862,-0.003906252793967724
2764,-0.013122567906975746,-0.0024414081126451492,0.9570929408073425,0.2894289195537567,-0.23046883940696716,-0.11328128725290298,9.652347564697266,0.0,-0.003906252793967724,0.001953126396983862
2770,-0.013122567906975746,-0.0024414081126451492,0.9570929408073425,0.2894289195537567,-0.26953133940696716,-0.11328128725290298,9.609378814697266,0.0,-0.003906252793967724,0.001953126396983862
2777,-0.013122567906975746,-0.0024414081126451492,0.9570929408073425,0.2894289195537567,-0.26953133940696716,-0.11328128725290298,9.609378814697266,0.001953126396983862,-0.001953126396983862,0.001953126396983862
2783,-0.013122567906975746,-0.0024414081126451492,0.9570929408073425,0.2894289195537567,-0.26953133940696716,-0.11328128725290298,9.609378814697266,-0.001953126396983862,0.0,0.001953126396983862
2789,-0.013061532750725746,-0.0024414081126451492,0.9571539759635925,0.2893678843975067,-0.26953133940696716,-0.11328128725290298,9.609378814697266,-0.001953126396983862,0.0,0.001953126396983862
2795,-0.013061532750725746,-0.0024414081126451492,0.9571539759635925,0.2893678843975067,-0.26953133940696716,-0.11328128725290298,9.648441314697266,-0.001953126396983862,0.0,0.001953126396983862
2801,-0.013061532750725746,-0.0024414081126451492,0.9571539759635925,0.2893678843975067,-0.23046883940696716,-0.11328128725290298,9.613285064697266,-0.001953126396983862,0.0,0.001953126396983862
2806,-0.013061532750725746,-0.0024414081126451492,0.9571539759635925,0.2893678843975067,-0.23046883940696716,-0.11328128725290298,9.613285064697266,0.003906252793967724,-0.001953126396983862,0.003906252793967724
2813,-0.013061532750725746,-0.0024414081126451492,0.9571539759635925,0.2893678843975067,-0.23046883940696716,-0.11328128725290298,9.613285064697266,-0.005859379190951586,0.007812505587935448,0.0
2820,-0.013061532750725746,-0.0024414081126451492,0.9571539759635925,0.2893678843975067,-0.26953133940696716,-0.11328128725290298,9.648441314697266,-0.005859379190951586,0.007812505587935448,0.0
2826,-0.013061532750725746,-0.0024414081126451492,0.9571539759635925,0.2893678843975067,-0.26953133940696716,-0.11328128725290298,9.648441314697266,-0.003906252793967724,0.005859379190951586,0.003906252793967724
2832,-0.013061532750725746,-0.0024414081126451492,0.9571539759635925,0.2893678843975067,-0.26953133940696716,-0.11328128725290298,9.648441314697266,-0.005859379190951586,0.005859379190951586,0.0
2838,-0.013061532750725746,-0.0024414081126451492,0.9571539759635925,0.2893678843975067,-0.26953133940696716,-0.11328128725290298,9.648441314697266,0.005859379190951586,0.0,0.001953126396983862
2844,-0.013061532750725746,-0.0024414081126451492,0.9571539759635925,0.2893678843975067,-0.23046883940696716,-0.11328128725290298,9.613285064697266,0.005859379190951586,0.0,0.001953126396983862
2851,-0.013061532750725746,-0.0024414081126451492,0.9571539759635925,0.2893678843975067,-0.23046883940696716,-0.11328128725290298,9.613285064697266,-0.001953126396983862,0.001953126396983862,-0.005859379190951586
2857,-0.013061532750725746,-0.0024414081126451492,0.9571539759635925,0.2893678843975067,-0.23046883940696716,-0.11328128725290298,9.613285064697266,-0.001953126396983862,0.0,0.005859379190951586
2863,-0.013061532750725746,-0.0024414081126451492,0.9571539759635925,0.2893068492412567,-0.23046883940696716,-0.11328128725290298,9.613285064697266,-0.001953126396983862,0.0,0.005859379190951586
2870,-0.013061532750725746,-0.0024414081126451492,0.9571539759635925,0.2893068492412567,-0.23046883940696716,-0.11328128725290298,9.613285064697266,-0.001953126396983862,0.0,0.005859379190951586
2876,-0.013061532750725746,-0.0024414081126451492,0.9571539759635925,0.2893068492412567,-0.26953133940696716,-0.11328128725290298,9.648441314697266,-0.001953126396983862,0.0,0.005859379190951586
2882,-0.013061532750725746,-0.0024414081126451492,0.9571539759635925,0.2893068492412567,-0.26953133940696716,-0.11328128725290298,9.648441314697266,0.001953126396983862,0.001953126396983862,0.001953126396983862
2888,-0.013061532750725746,-0.0024414081126451492,0.9571539759635925,0.2893068492412567,-0.26953133940696716,-0.11328128725290298,9.648441314697266,0.001953126396983862,0.001953126396983862,0.001953126396983862
2895,-0.013061532750725746,-0.0024414081126451492,0.9571539759635925,0.2893068492412567,-0.23046883940696716,-0.15234380960464478,9.613285064697266,0.001953126396983862,0.001953126396983862,0.001953126396983862
2902,-0.013061532750725746,-0.0024414081126451492,0.9571539759635925,0.2893068492412567,-0.23046883940696716,-0.15234380960464478,9.613285064697266,-0.001953126396983862,0.003906252793967724,-0.001953126396983862
2909,-0.013061532750725746,-0.0023803727235645056,0.9571539759635925,0.2893068492412567,-0.23046883940696716,-0.15234380960464478,9.613285064697266,-0.001953126396983862,0.003906252793967724,-0.001953126396983862
2915,-0.013061532750725746,-0.0023803727235645056,0.9571539759635925,0.2893068492412567,-0.19140632450580597,-0.11328128725290298,9.687503814697266,-0.001953126396983862,0.003906252793967724,-0.001953126396983862
2920,-0.013061532750725746,-0.0023803727235645056,0.9571539759635925,0.2893068492412567,-0.19140632450580597,-0.11328128725290298,9.687503814697266,-0.001953126396983862,-0.003906252793967724,0.001953126396983862
2927,-0.013061532750725746,-0.0023803727235645056,0.9571539759635925,0.2893068492412567,-0.19140632450580597,-0.11328128725290298,9.687503814697266,0.001953126396983862,-0.003906252793967724,0.0
2933,-0.013061532750725746,-0.0023803727235645056,0.9571539759635925,0.2893068492412567,-0.23046883940696716,-0.11328128725290298,9.613285064697266,0.001953126396983862,-0.003906252793967724,0.0
2939,-0.013061532750725746,-0.0023803727235645056,0.9571539759635925,0.2893068492412567,-0.23046883940696716,-0.11328128725290298,9.613285064697266,-0.001953126396983862,0.003906252793967724,0.003906252793967724
2946,-0.013061532750725746,-0.0023803727235645056,0.9571539759635925,0.2893068492412567,-0.26953133940696716,-0.11328128725290298,9.648441314697266,-0.001953126396983862,0.003906252793967724,0.003906252793967724
2953,-0.013061532750725746,-0.0023803727235645056,0.9571539759635925,0.2893068492412567,-0.26953133940696716,-0.11328128725290298,9.648441314697266,-0.003906252793967724,0.001953126396983862,0.003906252793967724
2959,-0.013061532750725746,-0.0023803727235645056,0.9571539759635925,0.2893068492412567,-0.23046883940696716,-0.15234380960464478,9.578128814697266,-0.003906252793967724,0.001953126396983862,0.003906252793967724
2964,-0.013061532750725746,-0.0023803727235645056,0.9571539759635925,0.2893068492412567,-0.23046883940696716,-0.15234380960464478,9.578128814697266,-0.009765632450580597,0.007812505587935448,-0.003906252793967724
2970,-0.013061532750725746,-0.0023803727235645056,0.9571539759635925,0.2893068492412567,-0.23046883940696716,-0.15234380960464478,9.578128814697266,-0.005859379190951586,0.009765632450580597,0.001953126396983862
2977,-0.013061532750725746,-0.0023803727235645056,0.9571539759635925,0.2893068492412567,-0.23046883940696716,-0.15234380960464478,9.578128814697266,0.003906252793967724,0.001953126396983862,0.001953126396983862
2984,-0.013061532750725746,-0.0023803727235645056,0.9571539759635925,0.2893068492412567,-0.23046883940696716,-0.15234380960464478,9.613285064697266,0.003906252793967724,0.001953126396983862,0.001953126396983862
2990,-0.013061532750725746,-0.0023803727235645056,0.9571539759635925,0.2893068492412567,-0.23046883940696716,-0.15234380960464478,9.613285064697266,0.003906252793967724,0.001953126396983862,-0.001953126396983862
2997,-0.013183603063225746,-0.0023803727235645056,0.9571539759635925,0.2892458140850067,-0.23046883940696716,-0.15234380960464478,9.613285064697266,0.003906252793967724,0.001953126396983862,-0.001953126396983862
3004,-0.013183603063225746,-0.0023803727235645056,0.9571539759635925,0.2892458140850067,-0.23046883940696716,-0.11328128725290298,9.687503814697266,0.003906252793967724,0.001953126396983862,-0.001953126396983862
3009,-0.013183603063225746,-0.0023803727235645056,0.9571539759635925,0.2892458140850067,-0.23046883940696716,-0.11328128725290298,9.687503814697266,-0.003906252793967724,0.003906252793967724,0.003906252793967724
3016,-0.013183603063225746,-0.0023803727235645056,0.9571539759635925,0.2892458140850067,-0.23046883940696716,-0.11328128725290298,9.687503814697266,0.003906252793967724,-0.001953126396983862,0.0
3022,-0.013183603063225746,-0.0023803727235645056,0.9571539759635925,0.2892458140850067,-0.23046883940696716,-0.11328128725290298,9.613285064697266,0.003906252793967724,-0.001953126396983862,0.0
3028,-0.013183603063225746,-0.0023803727235645056,0.9571539759635925,0.2892458140850067,-0.26953133940696716,-0.11328128725290298,9.691410064697266,0.003906252793967724,-0.001953126396983862,0.0
3036,-0.013183603063225746,-0.0023803727235645056,0.9571539759635925,0.2892458140850067,-0.26953133940696716,-0.11328128725290298,9.609378814697266,0.003906252793967724,-0.001953126396983862,0.0
3042,-0.013183603063225746,-0.0023803727235645056,0.9571539759635925,0.2892458140850067,-0.23046883940696716,-0.07812502980232239,9.652347564697266,0.003906252793967724,-0.001953126396983862,0.0
3048,-0.013183603063225746,-0.0023803727235645056,0.9571539759635925,0.2892458140850067,-0.23046883940696716,-0.07812502980232239,9.652347564697266,0.001953126396983862,-0.001953126396983862,-0.001953126396983862
3053,-0.013183603063225746,-0.0023803727235645056,0.9571539759635925,0.2892458140850067,-0.23046883940696716,-0.07812502980232239,9.652347564697266,0.0,-0.001953126396983862,0.003906252793967724
3059,-0.013183603063225746,-0.0023803727235645056,0.9571539759635925,0.2892458140850067,-0.23046883940696716,-0.07812502980232239,9.652347564697266,0.001953126396983862,-0.005859379190951586,0.0
3064,-0.013183603063225746,-0.0023803727235645056,0.9571539759635925,0.2892458140850067,-0.23046883940696716,-0.07812502980232239,9.652347564697266,-0.003906252793967724,-0.001953126396983862,-0.003906252793967724
3072,-0.013183603063225746,-0.0023803727235645056,0.9571539759635925,0.2892458140850067,-0.23046883940696716,-0.07812502980232239,9.652347564697266,0.007812505587935448,0.001953126396983862,-0.001953126396983862
3078,-0.013183603063225746,-0.0023803727235645056,0.9571539759635925,0.2892458140850067,-0.23046883940696716,-0.11328128725290298,9.652347564697266,0.007812505587935448,0.001953126396983862,-0.001953126396983862
3084,-0.013183603063225746,-0.0023803727235645056,0.9571539759635925,0.2892458140850067,-0.23046883940696716,-0.11328128725290298,9.652347564697266,0.0,0.001953126396983862,0.001953126396983862
3091,-0.013183603063225746,-0.0023803727235645056,0.9571539759635925,0.2892458140850067,-0.23046883940696716,-0.11328128725290298,9.652347564697266,-0.001953126396983862,-0.001953126396983862,-0.003906252793967724
3097,-0.013183603063225746,-0.0023803727235645056,0.9571539759635925,0.2892458140850067,-0.23046883940696716,-0.11328128725290298,9.652347564697266,-0.001953126396983862,-0.001953126396983862,-0.003906252793967724
3103,-0.013183603063225746,-0.0023803727235645056,0.9571539759635925,0.2892458140850067,-0.23046883940696716,-0.11328128725290298,9.613285064697266,-0.001953126396983862,-0.001953126396983862,-0.003906252793967724
3108,-0.013183603063225746,-0.0023803727235645056,0.9571539759635925,0.2892458140850067,-0.23046883940696716,-0.07812502980232239,9.613285064697266,-0.001953126396983862,-0.001953126396983862,-0.003906252793967724
3116,-0.013183603063225746,-0.0023803727235645056,0.9571539759635925,0.2892458140850067,-0.23046883940696716,-0.07812502980232239,9.613285064697266,0.003906252793967724,-0.003906252793967724,-0.003906252793967724
3123,-0.013183603063225746,-0.0023803727235645056,0.9571539759635925,0.2892458140850067,-0.23046883940696716,-0.11328128725290298,9.613285064697266,0.003906252793967724,-0.003906252793967724,-0.003906252793967724
3129,-0.013183603063225746,-0.0023803727235645056,0.9571539759635925,0.2892458140850067,-0.23046883940696716,-0.11328128725290298,9.613285064697266,0.001953126396983862,0.003906252793967724,0.001953126396983862
3135,-0.013183603063225746,-0.0023193375673145056,0.9571539759635925,0.2892458140850067,-0.23046883940696716,-0.11328128725290298,9.613285064697266,0.001953126396983862,0.003906252793967724,0.001953126396983862
3141,-0.013183603063225746,-0.0023193375673145056,0.9571539759635925,0.2892458140850067,-0.19140632450580597,-0.11328128725290298,9.613285064697266,0.001953126396983862,0.003906252793967724,0.001953126396983862
3147,-0.013183603063225746,-0.0023193375673145056,0.9571539759635925,0.2892458140850067,-0.19140632450580597,-0.11328128725290298,9.613285064697266,-0.003906252793967724,0.005859379190951586,0.0
3153,-0.013183603063225746,-0.0023193375673145056,0.9571539759635925,0.2892458140850067,-0.19140632450580597,-0.11328128725290298,9.613285064697266,-0.001953126396983862,0.0,0.0
3160,-0.013183603063225746,-0.0023193375673145056,0.9571539759635925,0.2892458140850067,-0.19140632450580597,-0.11328128725290298,9.613285064697266,-0.009765632450580597,-0.003906252793967724,0.001953126396983862
3166,-0.013183603063225746,-0.0023193375673145056,0.9571539759635925,0.2892458140850067,-0.23046883940696716,-0.11328128725290298,9.613285064697266,-0.009765632450580597,-0.003906252793967724,0.001953126396983862
3172,-0.013183603063225746,-0.0023193375673145056,0.9571539759635925,0.2892458140850067,-0.23046883940696716,-0.11328128725290298,9.613285064697266,0.005859379190951586,-0.001953126396983862,0.0
3178,-0.013183603063225746,-0.0023193375673145056,0.9571539759635925,0.2892458140850067,-0.23046883940696716,-0.11328128725290298,9.613285064697266,0.003906252793967724,-0.003906252793967724,0.0
3184,-0.013244638219475746,-0.0023193375673145056,0.9571539759635925,0.2892458140850067,-0.23046883940696716,-0.11328128725290298,9.613285064697266,0.003906252793967724,-0.003906252793967724,0.0
3191,-0.013244638219475746,-0.0023193375673145056,0.9571539759635925,0.2892458140850067,-0.26953133940696716,-0.11328128725290298,9.609378814697266,0.003906252793967724,-0.003906252793967724,0.0
3196,-0.013244638219475746,-0.0023193375673145056,0.9571539759635925,0.2892458140850067,-0.26953133940696716,-0.11328128725290298,9.609378814697266,0.0,0.001953126396983862,0.005859379190951586
3204,-0.013244638219475746,-0.0023193375673145056,0.9571539759635925,0.2892458140850067,-0.26953133940696716,-0.11328128725290298,9.609378814697266,0.007812505587935448,-0.003906252793967724,0.0
3210,-0.013244638219475746,-0.0023193375673145056,0.9571539759635925,0.2892458140850067,-0.23046883940696716,-0.07812502980232239,9.652347564697266,0.007812505587935448,-0.003906252793967724,0.0
3216,-0.013244638219475746,-0.0023193375673145056,0.9571539759635925,0.2892458140850067,-0.26953133940696716,-0.11328128725290298,9.609378814697266,0.007812505587935448,-0.003906252793967724,0.0
3222,-0.013244638219475746,-0.0023193375673145056,0.9571539759635925,0.2892458140850067,-0.26953133940696716,-0.11328128725290298,9.609378814697266,-0.003906252793967724,-0.001953126396983862,0.0
3229,-0.013244638219475746,-0.0023193375673145056,0.9571539759635925,0.2892458140850067,-0.26953133940696716,-0.11328128725290298,9.609378814697266,-0.003906252793967724,0.001953126396983862,0.0
3235,-0.013244638219475746,-0.0023193375673145056,0.9571539759635925,0.2892458140850067,-0.26953133940696716,-0.11328128725290298,9.609378814697266,-0.003906252793967724,0.001953126396983862,0.0
3240,-0.013244638219475746,-0.0023193375673145056,0.9571539759635925,0.2892458140850067,-0.26953133940696716,-0.11328128725290298,9.609378814697266,0.0,0.001953126396983862,0.0
3247,-0.013244638219475746,-0.0023193375673145056,0.9571539759635925,0.2892458140850067,-0.26953133940696716,-0.11328128725290298,9.609378814697266,-0.005859379190951586,0.0,0.001953126396983862
3253,-0.013244638219475746,-0.0023193375673145056,0.9571539759635925,0.2892458140850067,-0.26953133940696716,-0.11328128725290298,9.609378814697266,-0.005859379190951586,-0.003906252793967724,-0.001953126396983862
3259,-0.013244638219475746,-0.0023193375673145056,0.9571539759635925,0.2892458140850067,-0.26953133940696716,-0.11328128725290298,9.609378814697266,-0.005859379190951586,-0.003906252793967724,-0.001953126396983862
3265,-0.013244638219475746,-0.0023193375673145056,0.9571539759635925,0.2892458140850067,-0.23046883940696716,-0.11328128725290298,9.652347564697266,-0.005859379190951586,-0.003906252793967724,-0.001953126396983862
3271,-0.013244638219475746,-0.0023193375673145056,0.9571539759635925,0.2892458140850067,-0.23046883940696716,-0.11328128725290298,9.652347564697266,-0.001953126396983862,-0.003906252793967724,0.0
3277,-0.013244638219475746,-0.0023193375673145056,0.9571539759635925,0.2892458140850067,-0.23046883940696716,-0.11328128725290298,9.652347564697266,0.001953126396983862,0.0,0.0
3284,-0.013244638219475746,-0.0023193375673145056,0.9571539759635925,0.2892458140850067,-0.23046883940696716,-0.11328128725290298,9.652347564697266,-0.001953126396983862,0.003906252793967724,0.0
3291,-0.013244638219475746,-0.0023193375673145056,0.9571539759635925,0.2892458140850067,-0.23046883940696716,-0.11328128725290298,9.652347564697266,-0.001953126396983862,0.003906252793967724,0.0
3297,-0.013244638219475746,-0.0023193375673145056,0.9571539759635925,0.2892458140850067,-0.23046883940696716,-0.11328128725290298,9.652347564697266,0.005859379190951586,-0.001953126396983862,0.001953126396983862
3302,-0.013244638219475746,-0.0023193375673145056,0.9571539759635925,0.2892458140850067,-0.23046883940696716,-0.11328128725290298,9.652347564697266,-0.001953126396983862,-0.003906252793967724,0.001953126396983862
3309,-0.013244638219475746,-0.0021972672548145056,0.9571539759635925,0.2891847789287567,-0.23046883940696716,-0.11328128725290298,9.652347564697266,-0.001953126396983862,-0.003906252793967724,0.001953126396983862
3315,-0.013244638219475746,-0.0021972672548145056,0.9571539759635925,0.2891847789287567,-0.23046883940696716,-0.11328128725290298,9.652347564697266,0.005859379190951586,-0.001953126396983862,0.001953126396983862
3321,-0.013244638219475746,-0.0021972672548145056,0.9571539759635925,0.2891847789287567,-0.23046883940696716,-0.11328128725290298,9.652347564697266,0.0,-0.001953126396983862,0.005859379190951586
3328,-0.013244638219475746,-0.0021972672548145056,0.9571539759635925,0.2891847789287567,-0.23046883940696716,-0.11328128725290298,9.652347564697266,0.0,-0.001953126396983862,0.005859379190951586
3334,-0.013244638219475746,-0.0021972672548145056,0.9571539759635925,0.2891847789287567,-0.23046883940696716,-0.11328128725290298,9.613285064697266,0.0,-0.001953126396983862,0.005859379190951586
3340,-0.013244638219475746,-0.0021972672548145056,0.9571539759635925,0.2891847789287567,-0.23046883940696716,-0.07812502980232239,9.613285064697266,0.0,-0.001953126396983862,0.005859379190951586
3346,-0.013244638219475746,-0.0021972672548145056,0.9571539759635925,0.2891847789287567,-0.23046883940696716,-0.07812502980232239,9.613285064697266,0.005859379190951586,0.001953126396983862,0.001953126396983862
3353,-0.013244638219475746,-0.0021362320985645056,0.9571539759635925,0.2891847789287567,-0.23046883940696716,-0.07812502980232239,9.613285064697266,0.005859379190951586,0.001953126396983862,0.001953126396983862
3359,-0.013244638219475746,-0.0021362320985645056,0.9571539759635925,0.2891847789287567,-0.26953133940696716,-0.11328128725290298,9.648441314697266,0.005859379190951586,0.001953126396983862,0.001953126396983862
3365,-0.013244638219475746,-0.0021362320985645056,0.9571539759635925,0.2891847789287567,-0.26953133940696716,-0.11328128725290298,9.648441314697266,-0.001953126396983862,0.003906252793967724,0.0
3372,-0.013244638219475746,-0.0021362320985645056,0.9571539759635925,0.2891847789287567,-0.26953133940696716,-0.11328128725290298,9.648441314697266,0.005859379190951586,-0.001953126396983862,0.003906252793967724
3379,-0.013244638219475746,-0.0021362320985645056,0.9571539759635925,0.2891847789287567,-0.23046883940696716,-0.11328128725290298,9.613285064697266,0.005859379190951586,-0.001953126396983862,0.003906252793967724
3384,-0.013244638219475746,-0.0021362320985645056,0.9571539759635925,0.2891847789287567,-0.23046883940696716,-0.11328128725290298,9.613285064697266,0.003906252793967724,0.001953126396983862,0.001953126396983862
3390,-0.013244638219475746,-0.0021362320985645056,0.9571539759635925,0.2891847789287567,-0.23046883940696716,-0.11328128725290298,9.613285064697266,0.003906252793967724,0.001953126396983862,0.001953126396983862
3396,-0.013244638219475746,-0.0021362320985645056,0.9571539759635925,0.2891847789287567,-0.23046883940696716,-0.11328128725290298,9.613285064697266,0.0,0.003906252793967724,0.001953126396983862
3401,-0.013244638219475746,-0.002075196709483862,0.9571539759635925,0.2891847789287567,-0.23046883940696716,-0.11328128725290298,9.613285064697266,0.0,0.003906252793967724,0.001953126396983862
3408,-0.013244638219475746,-0.002075196709483862,0.9571539759635925,0.2891847789287567,-0.23046883940696716,-0.11328128725290298,9.613285064697266,0.0,0.003906252793967724,0.001953126396983862
3415,-0.013244638219475746,-0.002075196709483862,0.9571539759635925,0.2891847789287567,-0.23046883940696716,-0.11328128725290298,9.613285064697266,-0.003906252793967724,0.001953126396983862,0.001953126396983862
3420,-0.013244638219475746,-0.002075196709483862,0.9571539759635925,0.2891847789287567,-0.23046883940696716,-0.11328128725290298,9.613285064697266,0.001953126396983862,-0.003906252793967724,0.001953126396983862
3428,-0.013244638219475746,-0.002075196709483862,0.9571539759635925,0.2891847789287567,-0.23046883940696716,-0.11328128725290298,9.613285064697266,0.001953126396983862,0.001953126396983862,0.003906252793967724
3434,-0.013244638219475746,-0.002075196709483862,0.9571539759635925,0.2891847789287567,-0.23046883940696716,-0.07812502980232239,9.652347564697266,0.001953126396983862,0.001953126396983862,0.003906252793967724
3440,-0.013244638219475746,-0.002075196709483862,0.9571539759635925,0.2891847789287567,-0.23046883940696716,-0.07812502980232239,9.652347564697266,0.001953126396983862,-0.007812505587935448,0.001953126396983862
3447,-0.013244638219475746,-0.002075196709483862,0.9571539759635925,0.2891847789287567,-0.23046883940696716,-0.07812502980232239,9.652347564697266,0.0,0.001953126396983862,0.001953126396983862
3453,-0.013244638219475746,-0.002075196709483862,0.9571539759635925,0.2891847789287567,-0.23046883940696716,-0.15234380960464478,9.652347564697266,0.0,0.001953126396983862,0.001953126396983862
3460,-0.013244638219475746,-0.002075196709483862,0.9571539759635925,0.2891847789287567,-0.23046883940696716,-0.11328128725290298,9.613285064697266,0.0,0.001953126396983862,0.001953126396983862
3467,-0.013244638219475746,-0.002075196709483862,0.9571539759635925,0.2891847789287567,-0.23046883940696716,-0.11328128725290298,9.613285064697266,-0.001953126396983862,-0.001953126396983862,0.001953126396983862
3473,-0.013244638219475746,-0.002075196709483862,0.9571539759635925,0.2891847789287567,-0.23046883940696716,-0.11328128725290298,9.578128814697266,-0.001953126396983862,-0.001953126396983862,0.001953126396983862
3478,-0.013244638219475746,-0.002075196709483862,0.9571539759635925,0.2891847789287567,-0.23046883940696716,-0.11328128725290298,9.652347564697266,-0.001953126396983862,-0.001953126396983862,0.001953126396983862
3484,-0.013244638219475746,-0.002075196709483862,0.9571539759635925,0.2891847789287567,-0.26953133940696716,-0.11328128725290298,9.609378814697266,-0.001953126396983862,-0.001953126396983862,0.001953126396983862
3491,-0.013244638219475746,-0.002075196709483862,0.9571539759635925,0.2891847789287567,-0.26953133940696716,-0.11328128725290298,9.609378814697266,-0.001953126396983862,0.003906252793967724,-0.001953126396983862
3499,-0.013244638219475746,-0.002075196709483862,0.9571539759635925,0.2891847789287567,-0.26953133940696716,-0.07812502980232239,9.648441314697266,-0.001953126396983862,0.003906252793967724,-0.001953126396983862
3505,-0.013244638219475746,-0.002075196709483862,0.9571539759635925,0.2891847789287567,-0.26953133940696716,-0.07812502980232239,9.648441314697266,0.001953126396983862,-0.001953126396983862,0.0
3512,-0.013366708531975746,-0.002014161553233862,0.9572150111198425,0.2891847789287567,-0.26953133940696716,-0.07812502980232239,9.648441314697266,0.001953126396983862,-0.001953126396983862,0.0
3517,-0.013366708531975746,-0.002014161553233862,0.9572150111198425,0.2891847789287567,-0.23046883940696716,-0.11328128725290298,9.652347564697266,0.001953126396983862,-0.001953126396983862,0.0
3523,-0.013366708531975746,-0.002014161553233862,0.9572150111198425,0.2891847789287567,-0.23046883940696716,-0.11328128725290298,9.652347564697266,0.0,-0.001953126396983862,0.0
3529,-0.013366708531975746,-0.002014161553233862,0.9572150111198425,0.2891847789287567,-0.23046883940696716,-0.11328128725290298,9.652347564697266,-0.001953126396983862,-0.003906252793967724,-0.003906252793967724
3535,-0.013366708531975746,-0.002014161553233862,0.9572150111198425,0.2891847789287567,-0.23046883940696716,-0.11328128725290298,9.652347564697266,0.0,-0.001953126396983862,0.001953126396983862
3542,-0.013366708531975746,-0.002014161553233862,0.9572150111198425,0.2891847789287567,-0.23046883940696716,-0.11328128725290298,9.652347564697266,0.0,-0.001953126396983862,0.001953126396983862
3548,-0.013366708531975746,-0.002014161553233862,0.9572150111198425,0.2891847789287567,-0.23046883940696716,-0.11328128725290298,9.652347564697266,-0.001953126396983862,-0.001953126396983862,0.0
3554,-0.013366708531975746,-0.002014161553233862,0.9572150111198425,0.2891847789287567,-0.23046883940696716,-0.11328128725290298,9.652347564697266,0.0,0.003906252793967724,0.001953126396983862
3560,-0.013366708531975746,-0.002014161553233862,0.9572150111198425,0.2891847789287567,-0.23046883940696716,-0.11328128725290298,9.652347564697266,0.0,-0.005859379190951586,0.0
3566,-0.013366708531975746,-0.002014161553233862,0.9572150111198425,0.2891847789287567,-0.23046883940696716,-0.11328128725290298,9.613285064697266,0.0,-0.005859379190951586,0.0
3572,-0.013366708531975746,-0.002014161553233862,0.9572150111198425,0.2891847789287567,-0.23046883940696716,-0.11328128725290298,9.613285064697266,0.0,0.0,0.0
3577,-0.013366708531975746,-0.002014161553233862,0.9572150111198425,0.2891847789287567,-0.23046883940696716,-0.11328128725290298,9.613285064697266,0.0,0.0,0.0
3586,-0.013427743688225746,-0.002014161553233862,0.9571539759635925,0.2891847789287567,-0.23046883940696716,-0.11328128725290298,9.613285064697266,0.0,0.0,0.0
3592,-0.013427743688225746,-0.002014161553233862,0.9571539759635925,0.2891847789287567,-0.23046883940696716,-0.11328128725290298,9.613285064697266,0.0,0.0,0.0
3597,-0.013427743688225746,-0.002014161553233862,0.9571539759635925,0.2891847789287567,-0.23046883940696716,-0.11328128725290298,9.613285064697266,0.0,0.0,0.0
3604,-0.013427743688225746,-0.002014161553233862,0.9571539759635925,0.2891847789287567,-0.23046883940696716,-0.11328128725290298,9.613285064697266,0.0,0.0,0.0
3610,-0.013427743688225746,-0.002014161553233862,0.9571539759635925,0.2891847789287567,-0.23046883940696716,-0.15234380960464478,9.613285064697266,0.0,0.0,0.0
3616,-0.013427743688225746,-0.002014161553233862,0.9571539759635925,0.2891847789287567,-0.23046883940696716,-0.15234380960464478,9.613285064697266,0.0,0.0,0.0
3623,-0.013427743688225746,-0.002014161553233862,0.9571539759635925,0.2891847789287567,-0.23046883940696716,-0.15234380960464478,9.613285064697266,0.0,0.0,0.0
3630,-0.013427743688225746,-0.001953126396983862,0.9571539759635925,0.2891847789287567,-0.23046883940696716,-0.15234380960464478,9.613285064697266,0.0,0.0,0.0
3637,-0.013427743688225746,-0.001953126396983862,0.9571539759635925,0.2891847789287567,-0.26953133940696716,-0.11328128725290298,9.609378814697266,0.0,0.0,0.0
3644,-0.013427743688225746,-0.001953126396983862,0.9571539759635925,0.2891847789287567,-0.23046883940696716,-0.11328128725290298,9.613285064697266,0.0,0.0,0.0
3649,-0.013427743688225746,-0.001953126396983862,0.9571539759635925,0.2891847789287567,-0.23046883940696716,-0.11328128725290298,9.613285064697266,0.0,0.0,0.0
3655,-0.013427743688225746,-0.001953126396983862,0.9571539759635925,0.2891847789287567,-0.23046883940696716,-0.11328128725290298,9.613285064697266,0.0,0.0,0.0
3661,-0.013427743688225746,-0.001953126396983862,0.9571539759635925,0.2891847789287567,-0.23046883940696716,-0.11328128725290298,9.613285064697266,0.0,0.0,0.0
3667,-0.013427743688225746,-0.001953126396983862,0.9571539759635925,0.2891847789287567,-0.23046883940696716,-0.11328128725290298,9.613285064697266,0.0,0.0,0.0
3675,-0.013488778844475746,-0.001953126396983862,0.9571539759635925,0.2891847789287567,-0.23046883940696716,-0.11328128725290298,9.613285064697266,0.0,0.0,0.0
3681,-0.013488778844475746,-0.001953126396983862,0.9571539759635925,0.2891847789287567,-0.26953133940696716,-0.11328128725290298,9.609378814697266,0.0,0.0,0.0
3687,-0.013488778844475746,-0.001953126396983862,0.9571539759635925,0.2891847789287567,-0.26953133940696716,-0.11328128725290298,9.609378814697266,0.0,0.0,0.0
3694,-0.013427743688225746,-0.001953126396983862,0.9571539759635925,0.2891847789287567,-0.26953133940696716,-0.11328128725290298,9.609378814697266,0.0,0.0,0.0
3700,-0.013427743688225746,-0.001953126396983862,0.9571539759635925,0.2891847789287567,-0.23046883940696716,-0.07812502980232239,9.578128814697266,0.0,0.0,0.0
3706,-0.013427743688225746,-0.001953126396983862,0.9571539759635925,0.2891847789287567,-0.23046883940696716,-0.07812502980232239,9.578128814697266,0.0,0.0,0.0
3713,-0.013427743688225746,-0.001953126396983862,0.9571539759635925,0.2891847789287567,-0.23046883940696716,-0.07812502980232239,9.578128814697266,0.0,0.0,0.0
3719,-0.013427743688225746,-0.001953126396983862,0.9571539759635925,0.2891847789287567,-0.26953133940696716,-0.11328128725290298,9.609378814697266,0.0,0.0,0.0
3725,-0.013427743688225746,-0.001953126396983862,0.9571539759635925,0.2891847789287567,-0.23046883940696716,-0.11328128725290298,9.652347564697266,0.0,0.0,0.0
3731,-0.013427743688225746,-0.001953126396983862,0.9571539759635925,0.2891847789287567,-0.23046883940696716,-0.11328128725290298,9.652347564697266,0.0,0.0,0.0
3736,-0.013427743688225746,-0.001953126396983862,0.9571539759635925,0.2891847789287567,-0.23046883940696716,-0.11328128725290298,9.652347564697266,0.0,0.0,0.0
3743,-0.013427743688225746,-0.001953126396983862,0.9571539759635925,0.2891847789287567,-0.23046883940696716,-0.11328128725290298,9.652347564697266,0.0,0.0,0.0
3749,-0.013427743688225746,-0.001953126396983862,0.9571539759635925,0.2891847789287567,-0.23046883940696716,-0.11328128725290298,9.652347564697266,0.0,0.0,0.0
3756,-0.013427743688225746,-0.001953126396983862,0.9571539759635925,0.2891847789287567,-0.23046883940696716,-0.11328128725290298,9.652347564697266,0.0,0.0,0.0
3763,-0.013427743688225746,-0.001953126396983862,0.9571539759635925,0.2891847789287567,-0.23046883940696716,-0.11328128725290298,9.652347564697266,0.0,0.0,0.0
3768,-0.013427743688225746,-0.001953126396983862,0.9571539759635925,0.2891847789287567,-0.23046883940696716,-0.11328128725290298,9.652347564697266,0.0,0.0,0.0
3774,-0.013427743688225746,-0.001953126396983862,0.9571539759635925,0.2891847789287567,-0.23046883940696716,-0.11328128725290298,9.652347564697266,0.0,0.0,0.0
3780,-0.013427743688225746,-0.001953126396983862,0.9571539759635925,0.2891847789287567,-0.23046883940696716,-0.11328128725290298,9.652347564697266,0.0,0.0,0.0
3786,-0.013427743688225746,-0.001953126396983862,0.9571539759635925,0.2891847789287567,-0.23046883940696716,-0.11328128725290298,9.652347564697266,0.0,0.0,0.0
3791,-0.013427743688225746,-0.001953126396983862,0.9571539759635925,0.2891847789287567,-0.23046883940696716,-0.11328128725290298,9.652347564697266,0.0,0.0,0.0
3798,-0.013427743688225746,-0.001953126396983862,0.9571539759635925,0.2891847789287567,-0.23046883940696716,-0.11328128725290298,9.652347564697266,0.0,0.0,0.0
3804,-0.013427743688225746,-0.001953126396983862,0.9571539759635925,0.2891847789287567,-0.23046883940696716,-0.11328128725290298,9.652347564697266,0.0,0.0,0.0
3810,-0.013427743688225746,-0.001953126396983862,0.9571539759635925,0.2891847789287567,-0.23046883940696716,-0.11328128725290298,9.652347564697266,0.0,0.0,0.0
3816,-0.013427743688225746,-0.001953126396983862,0.9571539759635925,0.2891847789287567,-0.23046883940696716,-0.11328128725290298,9.652347564697266,0.0,0.0,0.0
3823,-0.013427743688225746,-0.001953126396983862,0.9571539759635925,0.2891847789287567,-0.23046883940696716,-0.11328128725290298,9.652347564697266,0.0,0.0,0.0
3829,-0.013427743688225746,-0.001953126396983862,0.9571539759635925,0.2891847789287567,-0.23046883940696716,-0.15234380960464478,9.613285064697266,0.0,0.0,0.0
3834,-0.013427743688225746,-0.001953126396983862,0.9571539759635925,0.2891847789287567,-0.26953133940696716,-0.11328128725290298,9.648441314697266,0.0,0.0,0.0
3842,-0.013427743688225746,-0.001953126396983862,0.9571539759635925,0.2891847789287567,-0.26953133940696716,-0.11328128725290298,9.648441314697266,0.0,0.0,0.0
3848,-0.013427743688225746,-0.001953126396983862,0.9571539759635925,0.2891847789287567,-0.23046883940696716,-0.11328128725290298,9.613285064697266,0.0,0.0,0.0
3854,-0.013427743688225746,-0.001953126396983862,0.9571539759635925,0.2891847789287567,-0.23046883940696716,-0.11328128725290298,9.652347564697266,0.0,0.0,0.0
3860,-0.013427743688225746,-0.001953126396983862,0.9571539759635925,0.2891847789287567,-0.23046883940696716,-0.11328128725290298,9.652347564697266,0.0,0.0,0.0
3866,-0.013366708531975746,-0.001953126396983862,0.9571539759635925,0.2891847789287567,-0.23046883940696716,-0.11328128725290298,9.652347564697266,0.0,0.0,0.0
3873,-0.013366708531975746,-0.001953126396983862,0.9571539759635925,0.2891847789287567,-0.23046883940696716,-0.11328128725290298,9.613285064697266,0.0,0.0,0.0
3878,-0.013366708531975746,-0.001953126396983862,0.9571539759635925,0.2891847789287567,-0.23046883940696716,-0.11328128725290298,9.613285064697266,0.0,0.0,0.0
3885,-0.013366708531975746,-0.001953126396983862,0.9571539759635925,0.2891847789287567,-0.23046883940696716,-0.11328128725290298,9.613285064697266,0.0,0.0,0.0
3892,-0.013366708531975746,-0.001953126396983862,0.9571539759635925,0.2891847789287567,-0.23046883940696716,-0.11328128725290298,9.613285064697266,0.0,0.0,0.0
3898,-0.013366708531975746,-0.001953126396983862,0.9571539759635925,0.2891847789287567,-0.23046883940696716,-0.15234380960464478,9.613285064697266,0.0,0.0,0.0
3904,-0.013366708531975746,-0.001953126396983862,0.9571539759635925,0.2891847789287567,-0.23046883940696716,-0.15234380960464478,9.613285064697266,0.0,0.0,0.0
3910,-0.013366708531975746,-0.001953126396983862,0.9571539759635925,0.2891847789287567,-0.23046883940696716,-0.15234380960464478,9.613285064697266,0.0,0.0,0.0
3916,-0.013366708531975746,-0.001953126396983862,0.9571539759635925,0.2891847789287567,-0.26953133940696716,-0.07812502980232239,9.609378814697266,0.0,0.0,0.0
3922,-0.013366708531975746,-0.001953126396983862,0.9571539759635925,0.2891847789287567,-0.26953133940696716,-0.11328128725290298,9.648441314697266,0.0,0.0,0.0
3929,-0.013366708531975746,-0.001953126396983862,0.9571539759635925,0.2891847789287567,-0.26953133940696716,-0.11328128725290298,9.648441314697266,0.0,0.0,0.0
3935,-0.013366708531975746,-0.001953126396983862,0.9571539759635925,0.2891847789287567,-0.26953133940696716,-0.11328128725290298,9.648441314697266,0.0,0.0,0.0
3941,-0.013366708531975746,-0.001953126396983862,0.9571539759635925,0.2891847789287567,-0.19140632450580597,-0.11328128725290298,9.652347564697266,0.0,0.0,0.0
3947,-0.013366708531975746,-0.001953126396983862,0.9571539759635925,0.2891847789287567,-0.23046883940696716,-0.11328128725290298,9.652347564697266,0.0,0.0,0.0
3953,-0.013366708531975746,-0.001953126396983862,0.9571539759635925,0.2891847789287567,-0.23046883940696716,-0.11328128725290298,9.652347564697266,0.0,0.0,0.0
3960,-0.013366708531975746,-0.001953126396983862,0.9571539759635925,0.2891847789287567,-0.23046883940696716,-0.11328128725290298,9.652347564697266,0.0,0.0,0.0
3965,-0.013366708531975746,-0.001953126396983862,0.9571539759635925,0.2891847789287567,-0.23046883940696716,-0.11328128725290298,9.652347564697266,0.0,0.0,0.0
3972,-0.013366708531975746,-0.001953126396983862,0.9571539759635925,0.2891847789287567,-0.23046883940696716,-0.11328128725290298,9.652347564697266,0.0,0.0,0.0
3978,-0.013366708531975746,-0.001953126396983862,0.9571539759635925,0.2891847789287567,-0.23046883940696716,-0.11328128725290298,9.652347564697266,0.0,0.0,0.0
3984,-0.013366708531975746,-0.001953126396983862,0.9571539759635925,0.2891847789287567,-0.23046883940696716,-0.11328128725290298,9.652347564697266,0.0,0.0,0.0
3990,-0.013366708531975746,-0.001953126396983862,0.9571539759635925,0.2891847789287567,-0.23046883940696716,-0.11328128725290298,9.652347564697266,0.0,0.0,0.0
3997,-0.013366708531975746,-0.001953126396983862,0.9571539759635925,0.2891847789287567,-0.26953133940696716,-0.11328128725290298,9.648441314697266,0.0,0.0,0.0
4002,-0.013366708531975746,-0.001953126396983862,0.9571539759635925,0.2891847789287567,-0.26953133940696716,-0.11328128725290298,9.648441314697266,0.0,0.0,0.0
4008,-0.013366708531975746,-0.001953126396983862,0.9571539759635925,0.2891847789287567,-0.26953133940696716,-0.11328128725290298,9.648441314697266,0.0,0.0,0.0
4016,-0.013366708531975746,-0.001953126396983862,0.9571539759635925,0.2891847789287567,-0.26953133940696716,-0.11328128725290298,9.648441314697266,0.0,0.0,0.0
4022,-0.013366708531975746,-0.001953126396983862,0.9571539759635925,0.2891847789287567,-0.26953133940696716,-0.11328128725290298,9.609378814697266,0.0,0.0,0.0
4028,-0.013366708531975746,-0.001953126396983862,0.9571539759635925,0.2891847789287567,-0.26953133940696716,-0.11328128725290298,9.609378814697266,0.0,0.0,0.0
4034,-0.013366708531975746,-0.001953126396983862,0.9571539759635925,0.2891847789287567,-0.26953133940696716,-0.11328128725290298,9.609378814697266,0.0,0.0,0.0
4040,-0.013366708531975746,-0.001953126396983862,0.9571539759635925,0.2891847789287567,-0.26953133940696716,-0.07812502980232239,9.648441314697266,0.0,0.0,0.0
4046,-0.013366708531975746,-0.001953126396983862,0.9571539759635925,0.2891847789287567,-0.23046883940696716,-0.11328128725290298,9.613285064697266,0.0,0.0,0.0
4054,-0.013366708531975746,-0.001953126396983862,0.9571539759635925,0.2891847789287567,-0.23046883940696716,-0.11328128725290298,9.613285064697266,0.0,0.0,0.0
4059,-0.013366708531975746,-0.001953126396983862,0.9571539759635925,0.2891847789287567,-0.19140632450580597,-0.11328128725290298,9.652347564697266,0.0,0.0,0.0
4065,-0.013366708531975746,-0.001953126396983862,0.9571539759635925,0.2891847789287567,-0.23046883940696716,-0.11328128725290298,9.613285064697266,0.0,0.0,0.0
4071,-0.013366708531975746,-0.001953126396983862,0.9571539759635925,0.2891847789287567,-0.23046883940696716,-0.11328128725290298,9.613285064697266,0.0,0.0,0.0
4077,-0.013366708531975746,-0.001953126396983862,0.9571539759635925,0.2891847789287567,-0.23046883940696716,-0.11328128725290298,9.613285064697266,0.0,0.0,0.0
4084,-0.013366708531975746,-0.001953126396983862,0.9571539759635925,0.2891847789287567,-0.23046883940696716,-0.11328128725290298,9.613285064697266,0.0,0.0,0.0
4090,-0.013366708531975746,-0.001953126396983862,0.9571539759635925,0.2891847789287567,-0.23046883940696716,-0.07812502980232239,9.613285064697266,0.0,0.0,0.0
4097,-0.013366708531975746,-0.001953126396983862,0.9571539759635925,0.2891847789287567,-0.23046883940696716,-0.07812502980232239,9.613285064697266,0.0,0.0,0.0
4103,-0.013366708531975746,-0.001953126396983862,0.9571539759635925,0.2891847789287567,-0.23046883940696716,-0.07812502980232239,9.613285064697266,0.0,0.0,0.0
4110,-0.013366708531975746,-0.001953126396983862,0.9571539759635925,0.2891847789287567,-0.23046883940696716,-0.11328128725290298,9.613285064697266,0.0,0.0,0.0
4115,-0.013366708531975746,-0.001953126396983862,0.9571539759635925,0.2891847789287567,-0.23046883940696716,-0.11328128725290298,9.613285064697266,0.0,0.0,0.0
4122,-0.013366708531975746,-0.001953126396983862,0.9571539759635925,0.2891847789287567,-0.23046883940696716,-0.07812502980232239,9.687503814697266,0.0,0.0,0.0
4127,-0.013366708531975746,-0.001953126396983862,0.9571539759635925,0.2891847789287567,-0.23046883940696716,-0.07812502980232239,9.687503814697266,0.0,0.0,0.0
4134,-0.013366708531975746,-0.001953126396983862,0.9571539759635925,0.2891847789287567,-0.23046883940696716,-0.11328128725290298,9.652347564697266,0.0,0.0,0.0
4141,-0.013366708531975746,-0.001953126396983862,0.9571539759635925,0.2891847789287567,-0.26953133940696716,-0.11328128725290298,9.609378814697266,0.0,0.0,0.0
4148,-0.013366708531975746,-0.001953126396983862,0.9571539759635925,0.2891847789287567,-0.26953133940696716,-0.11328128725290298,9.609378814697266,0.0,0.0,0.0
4155,-0.013366708531975746,-0.001953126396983862,0.9571539759635925,0.2891847789287567,-0.23046883940696716,-0.11328128725290298,9.652347564697266,0.0,0.0,0.0
4161,-0.013366708531975746,-0.001953126396983862,0.9571539759635925,0.2891847789287567,-0.23046883940696716,-0.11328128725290298,9.687503814697266,0.0,0.0,0.0
4167,-0.013366708531975746,-0.001953126396983862,0.9571539759635925,0.2891847789287567,-0.23046883940696716,-0.11328128725290298,9.687503814697266,0.0,0.0,0.0
4174,-0.013366708531975746,-0.001953126396983862,0.9571539759635925,0.2891847789287567,-0.23046883940696716,-0.11328128725290298,9.613285064697266,0.0,0.0,0.0
4180,-0.013366708531975746,-0.001953126396983862,0.9571539759635925,0.2891847789287567,-0.23046883940696716,-0.15234380960464478,9.613285064697266,0.0,0.0,0.0
4187,-0.013366708531975746,-0.001953126396983862,0.9571539759635925,0.2891847789287567,-0.23046883940696716,-0.15234380960464478,9.613285064697266,0.0,0.0,0.0
4194,-0.013366708531975746,-0.001953126396983862,0.9571539759635925,0.2891847789287567,-0.23046883940696716,-0.11328128725290298,9.687503814697266,0.0,0.0,0.0
4200,-0.013366708531975746,-0.001953126396983862,0.9571539759635925,0.2891847789287567,-0.23046883940696716,-0.11328128725290298,9.613285064697266,0.0,0.0,0.0
4205,-0.013366708531975746,-0.001953126396983862,0.9571539759635925,0.2891847789287567,-0.23046883940696716,-0.11328128725290298,9.613285064697266,0.0,0.0,0.0
4212,-0.013366708531975746,-0.001953126396983862,0.9571539759635925,0.2891847789287567,-0.23046883940696716,-0.11328128725290298,9.613285064697266,0.0,0.0,0.0
4219,-0.013366708531975746,-0.001953126396983862,0.9571539759635925,0.2891847789287567,-0.26953133940696716,-0.07812502980232239,9.609378814697266,0.0,0.0,0.0
4225,-0.013366708531975746,-0.001953126396983862,0.9571539759635925,0.2891847789287567,-0.26953133940696716,-0.07812502980232239,9.609378814697266,0.0,0.0,0.0
4233,-0.013366708531975746,-0.001953126396983862,0.9571539759635925,0.2891847789287567,-0.26953133940696716,-0.07812502980232239,9.609378814697266,0.0,0.0,0.0
4239,-0.013366708531975746,-0.001953126396983862,0.9571539759635925,0.2891847789287567,-0.26953133940696716,-0.11328128725290298,9.609378814697266,0.0,0.0,0.0
4245,-0.013366708531975746,-0.001953126396983862,0.9571539759635925,0.2891847789287567,-0.26953133940696716,-0.11328128725290298,9.609378814697266,0.0,0.0,0.0
4251,-0.013366708531975746,-0.001953126396983862,0.9571539759635925,0.2891847789287567,-0.26953133940696716,-0.11328128725290298,9.609378814697266,0.0,0.0,0.0
4257,-0.013366708531975746,-0.001953126396983862,0.9571539759635925,0.2891847789287567,-0.23046883940696716,-0.11328128725290298,9.652347564697266,0.0,0.0,0.0
4263,-0.013366708531975746,-0.001953126396983862,0.9571539759635925,0.2891847789287567,-0.23046883940696716,-0.11328128725290298,9.652347564697266,0.0,0.0,0.0
4269,-0.013366708531975746,-0.001953126396983862,0.9571539759635925,0.2891847789287567,-0.23046883940696716,-0.11328128725290298,9.652347564697266,0.0,0.0,0.0
4275,-0.013366708531975746,-0.001953126396983862,0.9571539759635925,0.2891847789287567,-0.23046883940696716,-0.11328128725290298,9.652347564697266,0.0,0.0,0.0
4282,-0.013366708531975746,-0.001953126396983862,0.9571539759635925,0.2891847789287567,-0.23046883940696716,-0.11328128725290298,9.652347564697266,0.0,0.0,0.0
4287,-0.013366708531975746,-0.001953126396983862,0.9571539759635925,0.2891847789287567,-0.26953133940696716,-0.11328128725290298,9.691410064697266,0.0,0.0,0.0
4293,-0.013366708531975746,-0.001953126396983862,0.9571539759635925,0.2891847789287567,-0.26953133940696716,-0.11328128725290298,9.609378814697266,0.0,0.0,0.0
4299,-0.013366708531975746,-0.001953126396983862,0.9571539759635925,0.2891847789287567,-0.26953133940696716,-0.11328128725290298,9.609378814697266,0.0,0.0,0.0
4304,-0.013366708531975746,-0.001953126396983862,0.9571539759635925,0.2891847789287567,-0.26953133940696716,-0.11328128725290298,9.609378814697266,0.0,0.0,0.0
4311,-0.013305673375725746,-0.001953126396983862,0.9571539759635925,0.2891847789287567,-0.26953133940696716,-0.11328128725290298,9.609378814697266,0.0,0.0,0.0
4318,-0.013305673375725746,-0.001953126396983862,0.9571539759635925,0.2891847789287567,-0.23046883940696716,-0.11328128725290298,9.652347564697266,0.0,0.0,0.0
4324,-0.013305673375725746,-0.001953126396983862,0.9571539759635925,0.2891847789287567,-0.23046883940696716,-0.11328128725290298,9.652347564697266,0.0,0.0,0.0
4329,-0.013305673375725746,-0.001953126396983862,0.9571539759635925,0.2891847789287567,-0.23046883940696716,-0.11328128725290298,9.652347564697266,0.0,0.0,0.0
4336,-0.013366708531975746,-0.002014161553233862,0.9571539759635925,0.2891847789287567,-0.23046883940696716,-0.11328128725290298,9.652347564697266,0.0,0.0,0.0
4343,-0.013366708531975746,-0.002014161553233862,0.9571539759635925,0.2891847789287567,-0.26953133940696716,-0.11328128725290298,9.609378814697266,0.0,0.0,0.0
4348,-0.013366708531975746,-0.002014161553233862,0.9571539759635925,0.2891847789287567,-0.26953133940696716,-0.11328128725290298,9.609378814697266,0.0,0.0,0.0
4357,-0.013366708531975746,-0.002014161553233862,0.9571539759635925,0.2891847789287567,-0.26953133940696716,-0.11328128725290298,9.609378814697266,0.0,0.0,0.0
4363,-0.013366708531975746,-0.002014161553233862,0.9571539759635925,0.2891847789287567,-0.23046883940696716,-0.11328128725290298,9.687503814697266,0.0,0.0,0.0
4369,-0.013366708531975746,-0.002014161553233862,0.9571539759635925,0.2891847789287567,-0.23046883940696716,-0.11328128725290298,9.687503814697266,0.0,0.0,0.0
4376,-0.013366708531975746,-0.002014161553233862,0.9571539759635925,0.2891847789287567,-0.23046883940696716,-0.11328128725290298,9.687503814697266,0.0,0.0,0.0
4382,-0.013366708531975746,-0.002014161553233862,0.9571539759635925,0.2891847789287567,-0.23046883940696716,-0.11328128725290298,9.613285064697266,0.0,0.0,0.0
4387,-0.013366708531975746,-0.002014161553233862,0.9571539759635925,0.2891847789287567,-0.23046883940696716,-0.11328128725290298,9.687503814697266,0.0,0.0,0.0
4393,-0.013366708531975746,-0.002014161553233862,0.9571539759635925,0.2891847789287567,-0.26953133940696716,-0.11328128725290298,9.648441314697266,0.0,0.0,0.0
4401,-0.013366708531975746,-0.002014161553233862,0.9571539759635925,0.2891847789287567,-0.26953133940696716,-0.11328128725290298,9.648441314697266,0.0,0.0,0.0
4408,-0.013366708531975746,-0.002014161553233862,0.9571539759635925,0.2891847789287567,-0.26953133940696716,-0.15234380960464478,9.648441314697266,0.0,0.0,0.0
4415,-0.013366708531975746,-0.002014161553233862,0.9571539759635925,0.2891847789287567,-0.26953133940696716,-0.15234380960464478,9.648441314697266,0.0,0.0,0.0
4421,-0.013366708531975746,-0.002014161553233862,0.9571539759635925,0.2891847789287567,-0.26953133940696716,-0.11328128725290298,9.609378814697266,0.0,0.0,0.0
4427,-0.013366708531975746,-0.002014161553233862,0.9571539759635925,0.2891847789287567,-0.26953133940696716,-0.11328128725290298,9.609378814697266,0.0,0.0,0.0
4433,-0.013366708531975746,-0.002014161553233862,0.9571539759635925,0.2891847789287567,-0.26953133940696716,-0.11328128725290298,9.609378814697266,0.0,0.0,0.0
4441,-0.013366708531975746,-0.002014161553233862,0.9571539759635925,0.2891847789287567,-0.26953133940696716,-0.07812502980232239,9.609378814697266,0.0,0.0,0.0
4447,-0.013366708531975746,-0.002014161553233862,0.9571539759635925,0.2891847789287567,-0.23046883940696716,-0.11328128725290298,9.687503814697266,0.0,0.0,0.0
4453,-0.013366708531975746,-0.002014161553233862,0.9571539759635925,0.2891847789287567,-0.23046883940696716,-0.11328128725290298,9.687503814697266,0.0,0.0,0.0
4460,-0.013366708531975746,-0.002075196709483862,0.9571539759635925,0.2891847789287567,-0.23046883940696716,-0.11328128725290298,9.687503814697266,0.0,0.0,0.0
4466,-0.013366708531975746,-0.002075196709483862,0.9571539759635925,0.2891847789287567,-0.23046883940696716,-0.07812502980232239,9.687503814697266,0.0,0.0,0.0
4471,-0.013366708531975746,-0.002075196709483862,0.9571539759635925,0.2891847789287567,-0.23046883940696716,-0.07812502980232239,9.687503814697266,0.0,0.0,0.0
4478,-0.013366708531975746,-0.002075196709483862,0.9571539759635925,0.2891847789287567,-0.23046883940696716,-0.07812502980232239,9.687503814697266,0.0,0.0,0.0
4486,-0.013366708531975746,-0.002075196709483862,0.9571539759635925,0.2891847789287567,-0.23046883940696716,-0.11328128725290298,9.652347564697266,0.0,0.0,0.0
4492,-0.013366708531975746,-0.002075196709483862,0.9571539759635925,0.2891847789287567,-0.23046883940696716,-0.11328128725290298,9.652347564697266,0.0,0.0,0.0
4498,-0.013366708531975746,-0.002075196709483862,0.9571539759635925,0.2891847789287567,-0.23046883940696716,-0.11328128725290298,9.652347564697266,0.0,0.0,0.0
4504,-0.013366708531975746,-0.002075196709483862,0.9571539759635925,0.2891847789287567,-0.23046883940696716,-0.11328128725290298,9.652347564697266,0.0,0.0,0.0
4510,-0.013366708531975746,-0.002075196709483862,0.9571539759635925,0.2891847789287567,-0.19140632450580597,-0.11328128725290298,9.613285064697266,0.0,0.0,0.0
4516,-0.013366708531975746,-0.002075196709483862,0.9571539759635925,0.2891847789287567,-0.19140632450580597,-0.11328128725290298,9.613285064697266,0.0,0.0,0.0
4521,-0.013366708531975746,-0.002075196709483862,0.9571539759635925,0.2891847789287567,-0.19140632450580597,-0.11328128725290298,9.613285064697266,0.0,0.0,0.0
4528,-0.013366708531975746,-0.002075196709483862,0.9571539759635925,0.2891847789287567,-0.19140632450580597,-0.11328128725290298,9.613285064697266,0.0,0.0,0.0
4535,-0.013366708531975746,-0.0021362320985645056,0.9571539759635925,0.2891847789287567,-0.19140632450580597,-0.11328128725290298,9.613285064697266,0.0,0.0,0.0
4541,-0.013366708531975746,-0.0021362320985645056,0.9571539759635925,0.2891847789287567,-0.23046883940696716,-0.11328128725290298,9.613285064697266,0.0,0.0,0.0
4547,-0.013366708531975746,-0.0021362320985645056,0.9571539759635925,0.2891847789287567,-0.23046883940696716,-0.11328128725290298,9.613285064697266,0.0,0.0,0.0
4554,-0.013366708531975746,-0.0021362320985645056,0.9571539759635925,0.2891847789287567,-0.23046883940696716,-0.11328128725290298,9.613285064697266,0.0,0.0,0.0
4560,-0.013366708531975746,-0.0021362320985645056,0.9571539759635925,0.2891847789287567,-0.23046883940696716,-0.11328128725290298,9.613285064697266,0.0,0.0,0.0
4566,-0.013366708531975746,-0.0021362320985645056,0.9571539759635925,0.2891847789287567,-0.26953133940696716,-0.11328128725290298,9.609378814697266,0.0,0.0,0.0
4572,-0.013366708531975746,-0.0021362320985645056,0.9571539759635925,0.2891847789287567,-0.23046883940696716,-0.11328128725290298,9.613285064697266,0.0,0.0,0.0
4579,-0.013366708531975746,-0.0021362320985645056,0.9571539759635925,0.2891847789287567,-0.23046883940696716,-0.11328128725290298,9.613285064697266,0.0,0.0,0.0
4586,-0.013366708531975746,-0.0021362320985645056,0.9571539759635925,0.2891847789287567,-0.19140632450580597,-0.11328128725290298,9.613285064697266,0.0,0.0,0.0
4592,-0.013366708531975746,-0.0021362320985645056,0.9571539759635925,0.2891847789287567,-0.19140632450580597,-0.11328128725290298,9.613285064697266,0.0,0.0,0.0
4599,-0.013366708531975746,-0.0021362320985645056,0.9571539759635925,0.2891847789287567,-0.23046883940696716,-0.11328128725290298,9.613285064697266,0.0,0.0,0.0
4605,-0.013366708531975746,-0.0021362320985645056,0.9571539759635925,0.2891847789287567,-0.26953133940696716,-0.07812502980232239,9.648441314697266,0.0,0.0,0.0
4612,-0.013366708531975746,-0.0021362320985645056,0.9571539759635925,0.2891847789287567,-0.26953133940696716,-0.07812502980232239,9.648441314697266,0.0,0.0,0.0
4619,-0.013366708531975746,-0.0021362320985645056,0.9571539759635925,0.2891847789287567,-0.23046883940696716,-0.11328128725290298,9.652347564697266,0.0,0.0,0.0
4625,-0.013366708531975746,-0.0021362320985645056,0.9571539759635925,0.2891847789287567,-0.23046883940696716,-0.07812502980232239,9.652347564697266,0.0,0.0,0.0
4630,-0.013366708531975746,-0.0021362320985645056,0.9571539759635925,0.2891847789287567,-0.23046883940696716,-0.07812502980232239,9.652347564697266,0.0,0.0,0.0
4637,-0.013366708531975746,-0.0021362320985645056,0.9571539759635925,0.2891847789287567,-0.23046883940696716,-0.07812502980232239,9.652347564697266,0.0,0.0,0.0
4643,-0.013366708531975746,-0.0021362320985645056,0.9571539759635925,0.2891847789287567,-0.23046883940696716,-0.07812502980232239,9.578128814697266,0.0,0.0,0.0
4649,-0.013366708531975746,-0.0021362320985645056,0.9571539759635925,0.2891847789287567,-0.23046883940696716,-0.07812502980232239,9.578128814697266,0.0,0.0,0.0
4656,-0.013366708531975746,-0.0021362320985645056,0.9571539759635925,0.2891847789287567,-0.23046883940696716,-0.07812502980232239,9.578128814697266,0.0,0.0,0.0
4662,-0.013366708531975746,-0.0021362320985645056,0.9571539759635925,0.2891847789287567,-0.23046883940696716,-0.07812502980232239,9.578128814697266,0.0,0.0,0.0
4668,-0.013366708531975746,-0.0021362320985645056,0.9571539759635925,0.2891847789287567,-0.23046883940696716,-0.11328128725290298,9.652347564697266,0.0,0.0,0.0
4674,-0.013366708531975746,-0.0021362320985645056,0.9571539759635925,0.2891847789287567,-0.23046883940696716,-0.11328128725290298,9.652347564697266,0.0,0.0,0.0
4680,-0.013366708531975746,-0.0021362320985645056,0.9571539759635925,0.2891847789287567,-0.23046883940696716,-0.11328128725290298,9.652347564697266,0.0,0.0,0.0
4686,-0.013366708531975746,-0.0021362320985645056,0.9571539759635925,0.2891847789287567,-0.23046883940696716,-0.11328128725290298,9.652347564697266,0.0,0.0,0.0
4694,-0.013366708531975746,-0.0021362320985645056,0.9571539759635925,0.2891847789287567,-0.23046883940696716,-0.11328128725290298,9.652347564697266,0.0,0.0,0.0
4699,-0.013366708531975746,-0.0021362320985645056,0.9571539759635925,0.2891847789287567,-0.23046883940696716,-0.11328128725290298,9.652347564697266,0.0,0.0,0.0
4705,-0.013366708531975746,-0.0021362320985645056,0.9571539759635925,0.2891847789287567,-0.23046883940696716,-0.11328128725290298,9.652347564697266,0.0,0.0,0.0
4712,-0.013366708531975746,-0.0021362320985645056,0.9571539759635925,0.2891847789287567,-0.23046883940696716,-0.11328128725290298,9.652347564697266,0.0,0.0,0.0
4718,-0.013366708531975746,-0.0021362320985645056,0.9571539759635925,0.2891847789287567,-0.26953133940696716,-0.11328128725290298,9.609378814697266,0.0,0.0,0.0
4724,-0.013366708531975746,-0.0021362320985645056,0.9571539759635925,0.2891847789287567,-0.26953133940696716,-0.11328128725290298,9.609378814697266,0.0,0.0,0.0
4731,-0.013366708531975746,-0.0021362320985645056,0.9571539759635925,0.2891847789287567,-0.26953133940696716,-0.11328128725290298,9.609378814697266,0.0,0.0,0.0
4738,-0.013366708531975746,-0.0021362320985645056,0.9571539759635925,0.2891847789287567,-0.23046883940696716,-0.11328128725290298,9.613285064697266,0.0,0.0,0.0
4744,-0.013366708531975746,-0.0021362320985645056,0.9571539759635925,0.2891847789287567,-0.23046883940696716,-0.11328128725290298,9.613285064697266,0.0,0.0,0.0
4750,-0.013366708531975746,-0.0021362320985645056,0.9571539759635925,0.2891847789287567,-0.26953133940696716,-0.15234380960464478,9.648441314697266,0.0,0.0,0.0
4757,-0.013366708531975746,-0.0021362320985645056,0.9571539759635925,0.2891847789287567,-0.26953133940696716,-0.15234380960464478,9.648441314697266,0.0,0.0,0.0
4763,-0.013366708531975746,-0.0021362320985645056,0.9571539759635925,0.2891847789287567,-0.26953133940696716,-0.11328128725290298,9.609378814697266,0.0,0.0,0.0
4769,-0.013366708531975746,-0.0021362320985645056,0.9571539759635925,0.2891847789287567,-0.23046883940696716,-0.11328128725290298,9.652347564697266,0.0,0.0,0.0
4777,-0.013366708531975746,-0.0021362320985645056,0.9571539759635925,0.2891847789287567,-0.23046883940696716,-0.11328128725290298,9.652347564697266,0.0,0.0,0.0
4784,-0.013366708531975746,-0.0021362320985645056,0.9571539759635925,0.2891847789287567,-0.23046883940696716,-0.11328128725290298,9.652347564697266,0.0,0.0,0.0
4789,-0.013366708531975746,-0.0021362320985645056,0.9571539759635925,0.2891847789287567,-0.23046883940696716,-0.11328128725290298,9.652347564697266,0.0,0.0,0.0
4795,-0.013366708531975746,-0.0021362320985645056,0.9571539759635925,0.2891847789287567,-0.23046883940696716,-0.11328128725290298,9.652347564697266,0.0,0.0,0.0
4802,-0.013366708531975746,-0.0021362320985645056,0.9571539759635925,0.2891847789287567,-0.26953133940696716,-0.11328128725290298,9.648441314697266,0.0,0.0,0.0
4808,-0.013366708531975746,-0.0021362320985645056,0.9571539759635925,0.2891847789287567,-0.26953133940696716,-0.11328128725290298,9.648441314697266,0.0,0.0,0.0
4815,-0.013366708531975746,-0.0021362320985645056,0.9571539759635925,0.2891847789287567,-0.26953133940696716,-0.11328128725290298,9.648441314697266,0.0,0.0,0.0
4822,-0.013366708531975746,-0.0021362320985645056,0.9571539759635925,0.2891847789287567,-0.23046883940696716,-0.07812502980232239,9.652347564697266,0.0,0.0,0.0
4827,-0.013366708531975746,-0.0021362320985645056,0.9571539759635925,0.2891847789287567,-0.23046883940696716,-0.07812502980232239,9.652347564697266,0.0,0.0,0.0
4833,-0.013366708531975746,-0.0021362320985645056,0.9571539759635925,0.2891847789287567,-0.23046883940696716,-0.07812502980232239,9.687503814697266,0.0,0.0,0.0
4840,-0.013366708531975746,-0.0021362320985645056,0.9571539759635925,0.2891847789287567,-0.23046883940696716,-0.07812502980232239,9.687503814697266,0.0,0.0,0.0
4846,-0.013366708531975746,-0.0021362320985645056,0.9571539759635925,0.2891847789287567,-0.23046883940696716,-0.11328128725290298,9.613285064697266,0.0,0.0,0.0
4852,-0.013366708531975746,-0.0021362320985645056,0.9571539759635925,0.2891847789287567,-0.26953133940696716,-0.11328128725290298,9.648441314697266,0.0,0.0,0.0
4858,-0.013366708531975746,-0.0021362320985645056,0.9571539759635925,0.2891847789287567,-0.26953133940696716,-0.11328128725290298,9.648441314697266,0.0,0.0,0.0
4865,-0.013366708531975746,-0.0021362320985645056,0.9571539759635925,0.2891847789287567,-0.26953133940696716,-0.11328128725290298,9.648441314697266,0.0,0.0,0.0
4872,-0.013366708531975746,-0.0021362320985645056,0.9571539759635925,0.2891847789287567,-0.26953133940696716,-0.11328128725290298,9.648441314697266,0.0,0.0,0.0
4877,-0.013366708531975746,-0.0021362320985645056,0.9571539759635925,0.2891847789287567,-0.26953133940696716,-0.11328128725290298,9.648441314697266,0.0,0.0,0.0
4883,-0.013366708531975746,-0.0021362320985645056,0.9571539759635925,0.2891847789287567,-0.26953133940696716,-0.11328128725290298,9.648441314697266,0.0,0.0,0.0
4890,-0.013366708531975746,-0.0021362320985645056,0.9571539759635925,0.2891847789287567,-0.26953133940696716,-0.11328128725290298,9.648441314697266,0.0,0.0,0.0
4896,-0.013366708531975746,-0.0021362320985645056,0.9571539759635925,0.2891847789287567,-0.23046883940696716,-0.07812502980232239,9.613285064697266,0.0,0.0,0.0
4902,-0.013366708531975746,-0.0021362320985645056,0.9571539759635925,0.2891847789287567,-0.23046883940696716,-0.07812502980232239,9.613285064697266,0.0,0.0,0.0
4910,-0.013366708531975746,-0.0021362320985645056,0.9571539759635925,0.2891847789287567,-0.23046883940696716,-0.07812502980232239,9.613285064697266,0.0,0.0,0.0
4916,-0.013366708531975746,-0.0021362320985645056,0.9571539759635925,0.2891847789287567,-0.23046883940696716,-0.11328128725290298,9.613285064697266,0.0,0.0,0.0
4922,-0.013366708531975746,-0.0021362320985645056,0.9571539759635925,0.2891847789287567,-0.26953133940696716,-0.11328128725290298,9.609378814697266,0.0,0.0,0.0
4929,-0.013366708531975746,-0.0021362320985645056,0.9571539759635925,0.2891847789287567,-0.26953133940696716,-0.11328128725290298,9.609378814697266,0.0,0.0,0.0
4935,-0.013366708531975746,-0.0021362320985645056,0.9571539759635925,0.2891847789287567,-0.23046883940696716,-0.07812502980232239,9.652347564697266,0.0,0.0,0.0
4941,-0.013366708531975746,-0.0021362320985645056,0.9571539759635925,0.2891847789287567,-0.23046883940696716,-0.11328128725290298,9.652347564697266,0.0,0.0,0.0
4947,-0.013366708531975746,-0.0021362320985645056,0.9571539759635925,0.2891847789287567,-0.23046883940696716,-0.07812502980232239,9.652347564697266,0.0,0.0,0.0
4955,-0.013366708531975746,-0.0021362320985645056,0.9571539759635925,0.2891847789287567,-0.23046883940696716,-0.07812502980232239,9.652347564697266,0.0,0.0,0.0
4962,-0.013366708531975746,-0.0021362320985645056,0.9571539759635925,0.2891847789287567,-0.26953133940696716,-0.15234380960464478,9.609378814697266,0.0,0.0,0.0
4968,-0.013366708531975746,-0.0021362320985645056,0.9571539759635925,0.2891847789287567,-0.26953133940696716,-0.15234380960464478,9.609378814697266,0.0,0.0,0.0
4974,-0.013366708531975746,-0.0021362320985645056,0.9571539759635925,0.2891847789287567,-0.26953133940696716,-0.07812502980232239,9.609378814697266,0.0,0.0,0.0
4980,-0.013366708531975746,-0.0021362320985645056,0.9571539759635925,0.2891847789287567,-0.26953133940696716,-0.07812502980232239,9.609378814697266,0.0,0.0,0.0
4986,-0.013366708531975746,-0.0021362320985645056,0.9571539759635925,0.2891847789287567,-0.26953133940696716,-0.07812502980232239,9.609378814697266,0.0,0.0,0.0
4994,-0.013366708531975746,-0.0021362320985645056,0.9571539759635925,0.2891847789287567,-0.26953133940696716,-0.07812502980232239,9.609378814697266,0.0,0.0,0.0
5000,-0.013366708531975746,-0.0021362320985645056,0.9571539759635925,0.2891847789287567,-0.23046883940696716,-0.11328128725290298,9.652347564697266,0.0,0.0,0.0
5006,-0.013366708531975746,-0.0021362320985645056,0.9571539759635925,0.2891847789287567,-0.23046883940696716,-0.11328128725290298,9.652347564697266,0.0,0.0,0.0
5012,-0.013366708531975746,-0.0021362320985645056,0.9571539759635925,0.2891847789287567,-0.23046883940696716,-0.11328128725290298,9.652347564697266,0.0,0.0,0.0
5019,-0.013366708531975746,-0.0021362320985645056,0.9571539759635925,0.2891847789287567,-0.23046883940696716,-0.11328128725290298,9.652347564697266,0.0,0.0,0.0
5025,-0.013366708531975746,-0.0021362320985645056,0.9571539759635925,0.2891847789287567,-0.23046883940696716,-0.11328128725290298,9.652347564697266,0.0,0.0,0.0
5031,-0.013366708531975746,-0.0021362320985645056,0.9571539759635925,0.2891847789287567,-0.23046883940696716,-0.11328128725290298,9.652347564697266,0.0,0.0,0.0
5038,-0.013366708531975746,-0.0021362320985645056,0.9571539759635925,0.2891847789287567,-0.23046883940696716,-0.11328128725290298,9.652347564697266,0.0,0.0,0.0
5044,-0.013366708531975746,-0.0021362320985645056,0.9571539759635925,0.2891847789287567,-0.26953133940696716,-0.11328128725290298,9.648441314697266,0.0,0.0,0.0
5050,-0.013366708531975746,-0.0021362320985645056,0.9571539759635925,0.2891847789287567,-0.23046883940696716,-0.11328128725290298,9.652347564697266,0.0,0.0,0.0
5056,-0.013366708531975746,-0.0021362320985645056,0.9571539759635925,0.2891847789287567,-0.23046883940696716,-0.11328128725290298,9.652347564697266,0.0,0.0,0.0
5062,-0.013366708531975746,-0.002075196709483862,0.9571539759635925,0.2891847789287567,-0.23046883940696716,-0.11328128725290298,9.652347564697266,0.0,0.0,0.0
5069,-0.013366708531975746,-0.002075196709483862,0.9571539759635925,0.2891847789287567,-0.23046883940696716,-0.11328128725290298,9.613285064697266,0.0,0.0,0.0
5074,-0.013366708531975746,-0.002075196709483862,0.9571539759635925,0.2891847789287567,-0.23046883940696716,-0.11328128725290298,9.613285064697266,0.0,0.0,0.0
5080,-0.013366708531975746,-0.002075196709483862,0.9571539759635925,0.2891847789287567,-0.23046883940696716,-0.11328128725290298,9.613285064697266,0.0,0.0,0.0
5087,-0.013366708531975746,-0.002075196709483862,0.9571539759635925,0.2891847789287567,-0.23046883940696716,-0.11328128725290298,9.613285064697266,0.0,0.0,0.0
5094,-0.013366708531975746,-0.002075196709483862,0.9571539759635925,0.2891847789287567,-0.23046883940696716,-0.11328128725290298,9.613285064697266,0.0,0.0,0.0
5100,-0.013366708531975746,-0.002075196709483862,0.9571539759635925,0.2891847789287567,-0.23046883940696716,-0.11328128725290298,9.613285064697266,0.0,0.0,0.0
5107,-0.013366708531975746,-0.002075196709483862,0.9571539759635925,0.2891847789287567,-0.23046883940696716,-0.11328128725290298,9.613285064697266,0.0,0.0,0.0
5113,-0.013366708531975746,-0.002075196709483862,0.9571539759635925,0.2891847789287567,-0.23046883940696716,-0.11328128725290298,9.578128814697266,0.0,0.0,0.0
5118,-0.013366708531975746,-0.002075196709483862,0.9571539759635925,0.2891847789287567,-0.26953133940696716,-0.11328128725290298,9.691410064697266,0.0,0.0,0.0
5125,-0.013366708531975746,-0.002075196709483862,0.9571539759635925,0.2891847789287567,-0.26953133940696716,-0.07812502980232239,9.609378814697266,0.0,0.0,0.0
5132,-0.013366708531975746,-0.002075196709483862,0.9571539759635925,0.2891847789287567,-0.26953133940696716,-0.07812502980232239,9.609378814697266,0.0,0.0,0.0
5139,-0.013366708531975746,-0.002075196709483862,0.9571539759635925,0.2891847789287567,-0.23046883940696716,-0.07812502980232239,9.578128814697266,0.0,0.0,0.0
5146,-0.013366708531975746,-0.002075196709483862,0.9571539759635925,0.2891847789287567,-0.23046883940696716,-0.07812502980232239,9.578128814697266,0.0,0.0,0.0
5152,-0.013366708531975746,-0.002075196709483862,0.9571539759635925,0.2891847789287567,-0.26953133940696716,-0.11328128725290298,9.648441314697266,0.0,0.0,0.0
5158,-0.013366708531975746,-0.002075196709483862,0.9571539759635925,0.2891847789287567,-0.23046883940696716,-0.11328128725290298,9.652347564697266,0.0,0.0,0.0
5165,-0.013366708531975746,-0.002075196709483862,0.9571539759635925,0.2891847789287567,-0.23046883940696716,-0.11328128725290298,9.652347564697266,0.0,0.0,0.0
5172,-0.013366708531975746,-0.002075196709483862,0.9571539759635925,0.2891847789287567,-0.23046883940696716,-0.11328128725290298,9.613285064697266,0.0,0.0,0.0
5178,-0.013366708531975746,-0.002075196709483862,0.9571539759635925,0.2891847789287567,-0.26953133940696716,-0.11328128725290298,9.648441314697266,0.0,0.0,0.0
5183,-0.013366708531975746,-0.002075196709483862,0.9571539759635925,0.2891847789287567,-0.26953133940696716,-0.11328128725290298,9.648441314697266,0.0,0.0,0.0
5190,-0.013366708531975746,-0.002075196709483862,0.9571539759635925,0.2891847789287567,-0.26953133940696716,-0.11328128725290298,9.648441314697266,0.0,0.0,0.0
5197,-0.013366708531975746,-0.002075196709483862,0.9571539759635925,0.2891847789287567,-0.23046883940696716,-0.11328128725290298,9.613285064697266,0.0,0.0,0.0
5202,-0.013366708531975746,-0.002075196709483862,0.9571539759635925,0.2891847789287567,-0.23046883940696716,-0.11328128725290298,9.613285064697266,0.0,0.0,0.0
5209,-0.013366708531975746,-0.002075196709483862,0.9571539759635925,0.2891847789287567,-0.23046883940696716,-0.11328128725290298,9.613285064697266,0.0,0.0,0.0
5215,-0.013305673375725746,-0.002014161553233862,0.9571539759635925,0.2891847789287567,-0.23046883940696716,-0.11328128725290298,9.613285064697266,0.0,0.0,0.0
5222,-0.013305673375725746,-0.002014161553233862,0.9571539759635925,0.2891847789287567,-0.26953133940696716,-0.15234380960464478,9.691410064697266,0.0,0.0,0.0
5228,-0.013305673375725746,-0.002014161553233862,0.9571539759635925,0.2891847789287567,-0.23046883940696716,-0.11328128725290298,9.687503814697266,0.0,0.0,0.0
5233,-0.013305673375725746,-0.002014161553233862,0.9571539759635925,0.2891847789287567,-0.23046883940696716,-0.11328128725290298,9.687503814697266,0.0,0.0,0.0
5239,-0.013305673375725746,-0.002014161553233862,0.9571539759635925,0.2891847789287567,-0.23046883940696716,-0.11328128725290298,9.687503814697266,0.0,0.0,0.0
5246,-0.013305673375725746,-0.002014161553233862,0.9571539759635925,0.2891847789287567,-0.26953133940696716,-0.11328128725290298,9.609378814697266,0.0,0.0,0.0
5253,-0.013305673375725746,-0.002014161553233862,0.9571539759635925,0.2891847789287567,-0.26953133940696716,-0.11328128725290298,9.609378814697266,0.0,0.0,0.0
5259,-0.013305673375725746,-0.002014161553233862,0.9571539759635925,0.2891847789287567,-0.26953133940696716,-0.11328128725290298,9.609378814697266,0.0,0.0,0.0
5266,-0.013305673375725746,-0.002014161553233862,0.9571539759635925,0.2891847789287567,-0.26953133940696716,-0.11328128725290298,9.609378814697266,0.0,0.0,0.0
5272,-0.013305673375725746,-0.002014161553233862,0.9571539759635925,0.2891847789287567,-0.23046883940696716,-0.11328128725290298,9.578128814697266,0.0,0.0,0.0
5278,-0.013305673375725746,-0.002014161553233862,0.9571539759635925,0.2891847789287567,-0.23046883940696716,-0.11328128725290298,9.578128814697266,0.0,0.0,0.0
5283,-0.013305673375725746,-0.002014161553233862,0.9571539759635925,0.2891847789287567,-0.23046883940696716,-0.11328128725290298,9.578128814697266,0.0,0.0,0.0
5292,-0.013305673375725746,-0.002014161553233862,0.9571539759635925,0.2891847789287567,-0.23046883940696716,-0.11328128725290298,9.578128814697266,0.0,0.0,0.0
5297,-0.013305673375725746,-0.002014161553233862,0.9571539759635925,0.2891847789287567,-0.23046883940696716,-0.07812502980232239,9.652347564697266,0.0,0.0,0.0
5303,-0.013305673375725746,-0.002014161553233862,0.9571539759635925,0.2891847789287567,-0.23046883940696716,-0.11328128725290298,9.652347564697266,0.0,0.0,0.0
5310,-0.013305673375725746,-0.002014161553233862,0.9571539759635925,0.2891847789287567,-0.23046883940696716,-0.11328128725290298,9.652347564697266,0.0,0.0,0.0
5317,-0.013305673375725746,-0.002014161553233862,0.9571539759635925,0.2891847789287567,-0.19140632450580597,-0.07812502980232239,9.613285064697266,0.0,0.0,0.0
5324,-0.013305673375725746,-0.002014161553233862,0.9571539759635925,0.2891847789287567,-0.19140632450580597,-0.07812502980232239,9.613285064697266,0.0,0.0,0.0
5330,-0.013305673375725746,-0.002014161553233862,0.9571539759635925,0.2891847789287567,-0.23046883940696716,-0.11328128725290298,9.652347564697266,0.0,0.0,0.0
5337,-0.013305673375725746,-0.002014161553233862,0.9571539759635925,0.2891847789287567,-0.23046883940696716,-0.11328128725290298,9.652347564697266,0.0,0.0,0.0
5343,-0.013305673375725746,-0.002014161553233862,0.9571539759635925,0.2891847789287567,-0.23046883940696716,-0.11328128725290298,9.652347564697266,0.0,0.0,0.0
5350,-0.013366708531975746,-0.002014161553233862,0.9571539759635925,0.2891847789287567,-0.23046883940696716,-0.11328128725290298,9.652347564697266,0.0,0.0,0.0
5356,-0.013366708531975746,-0.002014161553233862,0.9571539759635925,0.2891847789287567,-0.26953133940696716,-0.07812502980232239,9.648441314697266,0.0,0.0,0.0
5361,-0.013366708531975746,-0.002014161553233862,0.9571539759635925,0.2891847789287567,-0.26953133940696716,-0.07812502980232239,9.648441314697266,0.0,0.0,0.0
5368,-0.013366708531975746,-0.002014161553233862,0.9571539759635925,0.2891847789287567,-0.26953133940696716,-0.07812502980232239,9.648441314697266,0.0,0.0,0.0
5374,-0.013366708531975746,-0.002014161553233862,0.9571539759635925,0.2891847789287567,-0.23046883940696716,-0.11328128725290298,9.613285064697266,0.0,0.0,0.0
5381,-0.013366708531975746,-0.002014161553233862,0.9571539759635925,0.2891847789287567,-0.23046883940696716,-0.11328128725290298,9.613285064697266,0.0,0.0,0.0
5387,-0.013366708531975746,-0.002014161553233862,0.9571539759635925,0.2891847789287567,-0.23046883940696716,-0.11328128725290298,9.613285064697266,0.0,0.0,0.0
5393,-0.013427743688225746,-0.001953126396983862,0.9571539759635925,0.2891847789287567,-0.23046883940696716,-0.11328128725290298,9.613285064697266,0.0,0.0,0.0
5399,-0.013427743688225746,-0.001953126396983862,0.9571539759635925,0.2891847789287567,-0.23046883940696716,-0.11328128725290298,9.652347564697266,0.0,0.0,0.0
5405,-0.013427743688225746,-0.001953126396983862,0.9571539759635925,0.2891847789287567,-0.23046883940696716,-0.07812502980232239,9.613285064697266,0.0,0.0,0.0
5411,-0.013427743688225746,-0.001953126396983862,0.9571539759635925,0.2891847789287567,-0.23046883940696716,-0.07812502980232239,9.613285064697266,0.0,0.0,0.0
5417,-0.013427743688225746,-0.001953126396983862,0.9571539759635925,0.2891847789287567,-0.23046883940696716,-0.07812502980232239,9.613285064697266,0.0,0.0,0.0
5425,-0.013427743688225746,-0.001953126396983862,0.9571539759635925,0.2891847789287567,-0.23046883940696716,-0.07812502980232239,9.613285064697266,0.0,0.0,0.0
5430,-0.013427743688225746,-0.001953126396983862,0.9571539759635925,0.2891847789287567,-0.23046883940696716,-0.07812502980232239,9.613285064697266,0.0,0.0,0.0
5436,-0.013427743688225746,-0.001953126396983862,0.9571539759635925,0.2891847789287567,-0.23046883940696716,-0.07812502980232239,9.613285064697266,0.0,0.0,0.0
5443,-0.013427743688225746,-0.001953126396983862,0.9571539759635925,0.2891847789287567,-0.23046883940696716,-0.07812502980232239,9.613285064697266,0.0,0.0,0.0
5450,-0.013427743688225746,-0.001953126396983862,0.9571539759635925,0.2891847789287567,-0.26953133940696716,-0.11328128725290298,9.609378814697266,0.0,0.0,0.0
5456,-0.013427743688225746,-0.001953126396983862,0.9571539759635925,0.2891847789287567,-0.26953133940696716,-0.11328128725290298,9.609378814697266,0.0,0.0,0.0
5464,-0.013427743688225746,-0.001953126396983862,0.9571539759635925,0.2891847789287567,-0.26953133940696716,-0.11328128725290298,9.609378814697266,0.0,0.0,0.0
5470,-0.013427743688225746,-0.001953126396983862,0.9571539759635925,0.2891847789287567,-0.23046883940696716,-0.15234380960464478,9.652347564697266,0.0,0.0,0.0
5475,-0.013427743688225746,-0.001953126396983862,0.9571539759635925,0.2891847789287567,-0.26953133940696716,-0.11328128725290298,9.648441314697266,0.0,0.0,0.0
5481,-0.013427743688225746,-0.001953126396983862,0.9571539759635925,0.2891847789287567,-0.23046883940696716,-0.07812502980232239,9.652347564697266,0.0,0.0,0.0
5488,-0.013427743688225746,-0.001953126396983862,0.9571539759635925,0.2891847789287567,-0.23046883940696716,-0.07812502980232239,9.652347564697266,0.0,0.0,0.0
5494,-0.013427743688225746,-0.001953126396983862,0.9571539759635925,0.2891847789287567,-0.23046883940696716,-0.11328128725290298,9.652347564697266,0.0,0.0,0.0
5501,-0.013427743688225746,-0.001953126396983862,0.9571539759635925,0.2891847789287567,-0.26953133940696716,-0.11328128725290298,9.609378814697266,0.0,0.0,0.0
5509,-0.013366708531975746,-0.001953126396983862,0.9571539759635925,0.2891847789287567,-0.26953133940696716,-0.11328128725290298,9.609378814697266,0.0,0.0,0.0
5515,-0.013366708531975746,-0.001953126396983862,0.9571539759635925,0.2891847789287567,-0.26953133940696716,-0.11328128725290298,9.648441314697266,0.0,0.0,0.0
5521,-0.013366708531975746,-0.001953126396983862,0.9571539759635925,0.2891847789287567,-0.26953133940696716,-0.11328128725290298,9.648441314697266,0.0,0.0,0.0
5527,-0.013366708531975746,-0.001953126396983862,0.9571539759635925,0.2891847789287567,-0.26953133940696716,-0.11328128725290298,9.648441314697266,0.0,0.0,0.0
5533,-0.013366708531975746,-0.001953126396983862,0.9571539759635925,0.2891847789287567,-0.23046883940696716,-0.11328128725290298,9.652347564697266,0.0,0.0,0.0
5539,-0.013366708531975746,-0.001953126396983862,0.9571539759635925,0.2891847789287567,-0.23046883940696716,-0.11328128725290298,9.652347564697266,0.0,0.0,0.0
5544,-0.013366708531975746,-0.001953126396983862,0.9571539759635925,0.2891847789287567,-0.23046883940696716,-0.11328128725290298,9.652347564697266,0.0,0.0,0.0
5552,-0.013366708531975746,-0.001953126396983862,0.9571539759635925,0.2891847789287567,-0.23046883940696716,-0.11328128725290298,9.652347564697266,0.0,0.0,0.0
5558,-0.013366708531975746,-0.001953126396983862,0.9571539759635925,0.2891847789287567,-0.23046883940696716,-0.11328128725290298,9.613285064697266,0.0,0.0,0.0
5564,-0.013366708531975746,-0.001953126396983862,0.9571539759635925,0.2891847789287567,-0.23046883940696716,-0.11328128725290298,9.613285064697266,0.0,0.0,0.0
5571,-0.013366708531975746,-0.001953126396983862,0.9571539759635925,0.2891847789287567,-0.23046883940696716,-0.11328128725290298,9.613285064697266,0.0,0.0,0.0
5578,-0.013366708531975746,-0.001953126396983862,0.9571539759635925,0.2891847789287567,-0.19140632450580597,-0.11328128725290298,9.652347564697266,0.0,0.0,0.0
5583,-0.013366708531975746,-0.001953126396983862,0.9571539759635925,0.2891847789287567,-0.26953133940696716,-0.11328128725290298,9.609378814697266,0.0,0.0,0.0
5590,-0.013366708531975746,-0.001953126396983862,0.9571539759635925,0.2891847789287567,-0.26953133940696716,-0.11328128725290298,9.609378814697266,0.0,0.0,0.0
5596,-0.013427743688225746,-0.001892091240733862,0.9571539759635925,0.2891847789287567,-0.26953133940696716,-0.11328128725290298,9.609378814697266,0.0,0.0,0.0
5603,-0.013427743688225746,-0.001892091240733862,0.9571539759635925,0.2891847789287567,-0.26953133940696716,-0.11328128725290298,9.609378814697266,0.0,0.0,0.0
5608,-0.013427743688225746,-0.001892091240733862,0.9571539759635925,0.2891847789287567,-0.26953133940696716,-0.11328128725290298,9.609378814697266,0.0,0.0,0.0
5614,-0.013427743688225746,-0.001892091240733862,0.9571539759635925,0.2891847789287567,-0.26953133940696716,-0.11328128725290298,9.609378814697266,0.0,0.0,0.0
5621,-0.013427743688225746,-0.001892091240733862,0.9571539759635925,0.2891847789287567,-0.26953133940696716,-0.11328128725290298,9.609378814697266,0.0,0.0,0.0
5627,-0.013427743688225746,-0.001892091240733862,0.9571539759635925,0.2891847789287567,-0.26953133940696716,-0.11328128725290298,9.609378814697266,0.0,0.0,0.0
5634,-0.013427743688225746,-0.001892091240733862,0.9571539759635925,0.2891847789287567,-0.26953133940696716,-0.11328128725290298,9.609378814697266,0.0,0.0,0.0
5641,-0.013427743688225746,-0.001892091240733862,0.9571539759635925,0.2891847789287567,-0.26953133940696716,-0.11328128725290298,9.609378814697266,0.0,0.0,0.0
5648,-0.013427743688225746,-0.001892091240733862,0.9571539759635925,0.2891847789287567,-0.23046883940696716,-0.11328128725290298,9.613285064697266,0.0,0.0,0.0
5654,-0.013427743688225746,-0.001892091240733862,0.9571539759635925,0.2891847789287567,-0.23046883940696716,-0.11328128725290298,9.652347564697266,0.0,0.0,0.0
5661,-0.013427743688225746,-0.001892091240733862,0.9571539759635925,0.2891847789287567,-0.23046883940696716,-0.11328128725290298,9.652347564697266,0.0,0.0,0.0
5666,-0.013427743688225746,-0.001892091240733862,0.9571539759635925,0.2891847789287567,-0.23046883940696716,-0.07812502980232239,9.613285064697266,0.0,0.0,0.0
5672,-0.013427743688225746,-0.001892091240733862,0.9571539759635925,0.2891847789287567,-0.26953133940696716,-0.07812502980232239,9.648441314697266,0.0,0.0,0.0
5679,-0.013427743688225746,-0.001892091240733862,0.9571539759635925,0.2891847789287567,-0.26953133940696716,-0.07812502980232239,9.648441314697266,0.0,0.0,0.0
5685,-0.013488778844475746,-0.001953126396983862,0.9571539759635925,0.2891847789287567,-0.26953133940696716,-0.07812502980232239,9.648441314697266,0.0,0.0,0.0
5692,-0.013488778844475746,-0.001953126396983862,0.9571539759635925,0.2891847789287567,-0.26953133940696716,-0.11328128725290298,9.609378814697266,0.0,0.0,0.0
5697,-0.013488778844475746,-0.001953126396983862,0.9571539759635925,0.2891847789287567,-0.26953133940696716,-0.11328128725290298,9.609378814697266,0.0,0.0,0.0
5703,-0.013488778844475746,-0.001953126396983862,0.9571539759635925,0.2891847789287567,-0.26953133940696716,-0.11328128725290298,9.609378814697266,0.0,0.0,0.0
5710,-0.013488778844475746,-0.001953126396983862,0.9571539759635925,0.2891847789287567,-0.26953133940696716,-0.11328128725290298,9.609378814697266,0.0,0.0,0.0
5716,-0.013488778844475746,-0.001953126396983862,0.9571539759635925,0.2891847789287567,-0.23046883940696716,-0.15234380960464478,9.652347564697266,0.0,0.0,0.0
5723,-0.013488778844475746,-0.001953126396983862,0.9571539759635925,0.2891847789287567,-0.23046883940696716,-0.15234380960464478,9.652347564697266,0.0,0.0,0.0
5729,-0.013488778844475746,-0.001953126396983862,0.9571539759635925,0.2891847789287567,-0.23046883940696716,-0.15234380960464478,9.652347564697266,0.0,0.0,0.0
5735,-0.013488778844475746,-0.001953126396983862,0.9571539759635925,0.2891847789287567,-0.26953133940696716,-0.11328128725290298,9.648441314697266,0.0,0.0,0.0
5741,-0.013488778844475746,-0.001953126396983862,0.9571539759635925,0.2891847789287567,-0.26953133940696716,-0.11328128725290298,9.648441314697266,0.0,0.0,0.0
5747,-0.013488778844475746,-0.001953126396983862,0.9571539759635925,0.2891847789287567,-0.26953133940696716,-0.11328128725290298,9.648441314697266,0.0,0.0,0.0
5753,-0.013549814000725746,-0.001953126396983862,0.9571539759635925,0.2891847789287567,-0.26953133940696716,-0.11328128725290298,9.648441314697266,0.0,0.0,0.0
5760,-0.013549814000725746,-0.001953126396983862,0.9571539759635925,0.2891847789287567,-0.23046883940696716,-0.11328128725290298,9.613285064697266,0.0,0.0,0.0
5766,-0.013549814000725746,-0.001953126396983862,0.9571539759635925,0.2891847789287567,-0.23046883940696716,-0.11328128725290298,9.613285064697266,0.0,0.0,0.0
5772,-0.013549814000725746,-0.001953126396983862,0.9571539759635925,0.2891847789287567,-0.23046883940696716,-0.11328128725290298,9.613285064697266,0.0,0.0,0.0
5778,-0.013549814000725746,-0.001953126396983862,0.9571539759635925,0.2891847789287567,-0.23046883940696716,-0.11328128725290298,9.613285064697266,0.0,0.0,0.0
5784,-0.013549814000725746,-0.001953126396983862,0.9571539759635925,0.2891847789287567,-0.23046883940696716,-0.11328128725290298,9.613285064697266,0.0,0.0,0.0
5790,-0.013549814000725746,-0.001953126396983862,0.9571539759635925,0.2891847789287567,-0.23046883940696716,-0.11328128725290298,9.613285064697266,0.0,0.0,0.0
5796,-0.013549814000725746,-0.001953126396983862,0.9571539759635925,0.2891847789287567,-0.26953133940696716,-0.11328128725290298,9.609378814697266,0.0,0.0,0.0
5804,-0.013549814000725746,-0.001953126396983862,0.9571539759635925,0.2891847789287567,-0.26953133940696716,-0.11328128725290298,9.609378814697266,0.0,0.0,0.0
5810,-0.013549814000725746,-0.001953126396983862,0.9571539759635925,0.2891847789287567,-0.23046883940696716,-0.07812502980232239,9.652347564697266,0.0,0.0,0.0
5816,-0.013549814000725746,-0.001953126396983862,0.9571539759635925,0.2891847789287567,-0.23046883940696716,-0.07812502980232239,9.652347564697266,0.0,0.0,0.0
5822,-0.013549814000725746,-0.001953126396983862,0.9571539759635925,0.2891847789287567,-0.23046883940696716,-0.07812502980232239,9.652347564697266,0.0,0.0,0.0
5828,-0.013549814000725746,-0.001953126396983862,0.9571539759635925,0.2891847789287567,-0.23046883940696716,-0.07812502980232239,9.652347564697266,0.0,0.0,0.0
5835,-0.013549814000725746,-0.001953126396983862,0.9571539759635925,0.2891847789287567,-0.23046883940696716,-0.11328128725290298,9.578128814697266,0.0,0.0,0.0
5840,-0.013549814000725746,-0.001953126396983862,0.9571539759635925,0.2891847789287567,-0.23046883940696716,-0.11328128725290298,9.578128814697266,0.0,0.0,0.0
5847,-0.013549814000725746,-0.001953126396983862,0.9571539759635925,0.2891847789287567,-0.23046883940696716,-0.11328128725290298,9.578128814697266,0.0,0.0,0.0
5854,-0.013549814000725746,-0.001953126396983862,0.9571539759635925,0.2891847789287567,-0.23046883940696716,-0.11328128725290298,9.578128814697266,0.0,0.0,0.0
5860,-0.013549814000725746,-0.001953126396983862,0.9571539759635925,0.2891847789287567,-0.23046883940696716,-0.11328128725290298,9.613285064697266,0.0,0.0,0.0
5866,-0.013549814000725746,-0.001953126396983862,0.9571539759635925,0.2891847789287567,-0.23046883940696716,-0.11328128725290298,9.613285064697266,0.0,0.0,0.0
5873,-0.013549814000725746,-0.001953126396983862,0.9571539759635925,0.2891847789287567,-0.23046883940696716,-0.11328128725290298,9.613285064697266,0.0,0.0,0.0
5879,-0.013549814000725746,-0.001953126396983862,0.9571539759635925,0.2891847789287567,-0.26953133940696716,-0.11328128725290298,9.648441314697266,0.0,0.0,0.0
5885,-0.013549814000725746,-0.001953126396983862,0.9571539759635925,0.2891847789287567,-0.26953133940696716,-0.11328128725290298,9.648441314697266,0.0,0.0,0.0
5892,-0.013549814000725746,-0.001953126396983862,0.9571539759635925,0.2891847789287567,-0.26953133940696716,-0.11328128725290298,9.648441314697266,0.0,0.0,0.0
5898,-0.013549814000725746,-0.001953126396983862,0.9571539759635925,0.2891847789287567,-0.23046883940696716,-0.11328128725290298,9.613285064697266,0.0,0.0,0.0
5904,-0.013549814000725746,-0.001953126396983862,0.9571539759635925,0.2891847789287567,-0.26953133940696716,-0.11328128725290298,9.582035064697266,0.0,0.0,0.0
5910,-0.013549814000725746,-0.001953126396983862,0.9571539759635925,0.2891847789287567,-0.26953133940696716,-0.11328128725290298,9.582035064697266,0.0,0.0,0.0
5915,-0.013549814000725746,-0.001953126396983862,0.9571539759635925,0.2891847789287567,-0.26953133940696716,-0.11328128725290298,9.582035064697266,0.0,0.0,0.0
5922,-0.013549814000725746,-0.001953126396983862,0.9571539759635925,0.2891847789287567,-0.26953133940696716,-0.11328128725290298,9.582035064697266,0.0,0.0,0.0
5928,-0.013549814000725746,-0.001953126396983862,0.9571539759635925,0.2891847789287567,-0.23046883940696716,-0.11328128725290298,9.652347564697266,0.0,0.0,0.0
5935,-0.013549814000725746,-0.001953126396983862,0.9571539759635925,0.2891847789287567,-0.23046883940696716,-0.11328128725290298,9.652347564697266,0.0,0.0,0.0
5942,-0.013549814000725746,-0.001953126396983862,0.9571539759635925,0.2891847789287567,-0.23046883940696716,-0.11328128725290298,9.652347564697266,0.0,0.0,0.0
5948,-0.013549814000725746,-0.001953126396983862,0.9571539759635925,0.2891847789287567,-0.23046883940696716,-0.11328128725290298,9.613285064697266,0.0,0.0,0.0
5954,-0.013549814000725746,-0.001953126396983862,0.9571539759635925,0.2891847789287567,-0.23046883940696716,-0.11328128725290298,9.613285064697266,0.0,0.0,0.0
5961,-0.013549814000725746,-0.001953126396983862,0.9571539759635925,0.2891847789287567,-0.23046883940696716,-0.11328128725290298,9.613285064697266,0.0,0.0,0.0
5966,-0.013549814000725746,-0.001953126396983862,0.9571539759635925,0.2891847789287567,-0.26953133940696716,-0.11328128725290298,9.648441314697266,0.0,0.0,0.0
5972,-0.013549814000725746,-0.001953126396983862,0.9571539759635925,0.2891847789287567,-0.26953133940696716,-0.11328128725290298,9.648441314697266,0.0,0.0,0.0
5979,-0.013549814000725746,-0.001953126396983862,0.9571539759635925,0.2891847789287567,-0.26953133940696716,-0.11328128725290298,9.648441314697266,0.0,0.0,0.0
5984,-0.013549814000725746,-0.001953126396983862,0.9571539759635925,0.2891847789287567,-0.26953133940696716,-0.11328128725290298,9.648441314697266,0.0,0.0,0.0
5990,-0.013549814000725746,-0.001953126396983862,0.9571539759635925,0.2891847789287567,-0.26953133940696716,-0.11328128725290298,9.648441314697266,0.0,0.0,0.0
5996,-0.013549814000725746,-0.001953126396983862,0.9571539759635925,0.2891847789287567,-0.26953133940696716,-0.11328128725290298,9.648441314697266,0.0,0.0,0.0
6003,-0.013549814000725746,-0.001953126396983862,0.9571539759635925,0.2891847789287567,-0.23046883940696716,-0.11328128725290298,9.613285064697266,0.0,0.0,0.0
6008,-0.013549814000725746,-0.001953126396983862,0.9571539759635925,0.2891847789287567,-0.23046883940696716,-0.11328128725290298,9.613285064697266,0.0,0.0,0.0
6014,-0.013549814000725746,-0.001953126396983862,0.9571539759635925,0.2891847789287567,-0.26953133940696716,-0.11328128725290298,9.609378814697266,0.0,0.0,0.0
6022,-0.013671884313225746,-0.002014161553233862,0.9571539759635925,0.2891847789287567,-0.26953133940696716,-0.11328128725290298,9.609378814697266,0.0,0.0,0.0
6028,-0.013671884313225746,-0.002014161553233862,0.9571539759635925,0.2891847789287567,-0.26953133940696716,-0.11328128725290298,9.609378814697266,0.0,0.0,0.0
6034,-0.013671884313225746,-0.002014161553233862,0.9571539759635925,0.2891847789287567,-0.26953133940696716,-0.11328128725290298,9.609378814697266,0.0,0.0,0.0
6040,-0.013671884313225746,-0.002075196709483862,0.9571539759635925,0.2891847789287567,-0.26953133940696716,-0.11328128725290298,9.609378814697266,0.0,0.0,0.0
6045,-0.013671884313225746,-0.002075196709483862,0.9571539759635925,0.2891847789287567,-0.23046883940696716,-0.11328128725290298,9.613285064697266,0.0,0.0,0.0
6051,-0.013671884313225746,-0.002075196709483862,0.9571539759635925,0.2891847789287567,-0.26953133940696716,-0.11328128725290298,9.609378814697266,0.0,0.0,0.0
6057,-0.013671884313225746,-0.002075196709483862,0.9571539759635925,0.2891847789287567,-0.26953133940696716,-0.11328128725290298,9.609378814697266,0.0,0.0,0.0
6064,-0.013671884313225746,-0.002075196709483862,0.9571539759635925,0.2891847789287567,-0.26953133940696716,-0.11328128725290298,9.609378814697266,0.0,0.0,0.0
6071,-0.013671884313225746,-0.002075196709483862,0.9571539759635925,0.2891847789287567,-0.26953133940696716,-0.11328128725290298,9.609378814697266,0.0,0.0,0.0
6077,-0.013671884313225746,-0.002075196709483862,0.9571539759635925,0.2891847789287567,-0.26953133940696716,-0.11328128725290298,9.648441314697266,0.0,0.0,0.0
6083,-0.013671884313225746,-0.002075196709483862,0.9571539759635925,0.2891847789287567,-0.23046883940696716,-0.07812502980232239,9.652347564697266,0.0,0.0,0.0
6090,-0.013671884313225746,-0.002075196709483862,0.9571539759635925,0.2891847789287567,-0.23046883940696716,-0.07812502980232239,9.652347564697266,0.0,0.0,0.0
6096,-0.013671884313225746,-0.002075196709483862,0.9571539759635925,0.2891847789287567,-0.26953133940696716,-0.11328128725290298,9.648441314697266,0.0,0.0,0.0
6102,-0.013671884313225746,-0.002075196709483862,0.9571539759635925,0.2891847789287567,-0.26953133940696716,-0.11328128725290298,9.609378814697266,0.0,0.0,0.0
6108,-0.013671884313225746,-0.002075196709483862,0.9571539759635925,0.2891847789287567,-0.26953133940696716,-0.11328128725290298,9.609378814697266,0.0,0.0,0.0
6114,-0.013671884313225746,-0.002075196709483862,0.9571539759635925,0.2891847789287567,-0.26953133940696716,-0.11328128725290298,9.609378814697266,0.0,0.0,0.0
6120,-0.013671884313225746,-0.002075196709483862,0.9571539759635925,0.2891847789287567,-0.26953133940696716,-0.11328128725290298,9.609378814697266,0.0,0.0,0.0
6126,-0.013671884313225746,-0.002075196709483862,0.9571539759635925,0.2891847789287567,-0.23046883940696716,-0.11328128725290298,9.652347564697266,0.0,0.0,0.0
6132,-0.013671884313225746,-0.002075196709483862,0.9571539759635925,0.2891847789287567,-0.23046883940696716,-0.11328128725290298,9.652347564697266,0.0,0.0,0.0
6138,-0.013671884313225746,-0.002075196709483862,0.9571539759635925,0.2891847789287567,-0.23046883940696716,-0.11328128725290298,9.652347564697266,0.0,0.0,0.0
6145,-0.013671884313225746,-0.002075196709483862,0.9571539759635925,0.2891847789287567,-0.23046883940696716,-0.11328128725290298,9.652347564697266,0.0,0.0,0.0
6151,-0.013671884313225746,-0.002075196709483862,0.9571539759635925,0.2891847789287567,-0.26953133940696716,-0.11328128725290298,9.609378814697266,0.0,0.0,0.0
6157,-0.013671884313225746,-0.002075196709483862,0.9571539759635925,0.2891847789287567,-0.26953133940696716,-0.11328128725290298,9.648441314697266,0.0,0.0,0.0
6162,-0.013671884313225746,-0.002075196709483862,0.9571539759635925,0.2891847789287567,-0.26953133940696716,-0.11328128725290298,9.648441314697266,0.0,0.0,0.0
6169,-0.013671884313225746,-0.002075196709483862,0.9571539759635925,0.2891847789287567,-0.26953133940696716,-0.11328128725290298,9.648441314697266,0.0,0.0,0.0
6176,-0.013671884313225746,-0.002075196709483862,0.9571539759635925,0.2891847789287567,-0.23046883940696716,-0.15234380960464478,9.652347564697266,0.0,0.0,0.0
6181,-0.013671884313225746,-0.002075196709483862,0.9571539759635925,0.2891847789287567,-0.23046883940696716,-0.15234380960464478,9.652347564697266,0.0,0.0,0.0
6188,-0.013671884313225746,-0.002075196709483862,0.9571539759635925,0.2891847789287567,-0.23046883940696716,-0.15234380960464478,9.652347564697266,0.0,0.0,0.0
6195,-0.013671884313225746,-0.002075196709483862,0.9571539759635925,0.2891847789287567,-0.23046883940696716,-0.15234380960464478,9.652347564697266,0.0,0.0,0.0
6201,-0.013671884313225746,-0.002075196709483862,0.9571539759635925,0.2891847789287567,-0.23046883940696716,-0.11328128725290298,9.652347564697266,0.0,0.0,0.0
6207,-0.013671884313225746,-0.002075196709483862,0.9571539759635925,0.2891847789287567,-0.26953133940696716,-0.11328128725290298,9.648441314697266,0.0,0.0,0.0
6214,-0.013671884313225746,-0.002075196709483862,0.9571539759635925,0.2891847789287567,-0.26953133940696716,-0.11328128725290298,9.648441314697266,0.0,0.0,0.0
6220,-0.013671884313225746,-0.002075196709483862,0.9571539759635925,0.2891847789287567,-0.23046883940696716,-0.11328128725290298,9.613285064697266,0.0,0.0,0.0
6226,-0.013671884313225746,-0.002075196709483862,0.9571539759635925,0.2891847789287567,-0.26953133940696716,-0.11328128725290298,9.648441314697266,0.0,0.0,0.0
6232,-0.013671884313225746,-0.002075196709483862,0.9571539759635925,0.2891847789287567,-0.26953133940696716,-0.11328128725290298,9.648441314697266,0.0,0.0,0.0
6238,-0.01373292040079832,-0.002075196709483862,0.9571539759635925,0.2891847789287567,-0.26953133940696716,-0.11328128725290298,9.648441314697266,0.0,0.0,0.0
6245,-0.01373292040079832,-0.002075196709483862,0.9571539759635925,0.2891847789287567,-0.23046883940696716,-0.11328128725290298,9.652347564697266,0.0,0.0,0.0
6251,-0.01373292040079832,-0.002075196709483862,0.9571539759635925,0.2891847789287567,-0.23046883940696716,-0.11328128725290298,9.652347564697266,0.0,0.0,0.0
6256,-0.01373292040079832,-0.002075196709483862,0.9571539759635925,0.2891847789287567,-0.23046883940696716,-0.11328128725290298,9.652347564697266,0.0,0.0,0.0
6263,-0.01373292040079832,-0.002075196709483862,0.9571539759635925,0.2891847789287567,-0.23046883940696716,-0.11328128725290298,9.652347564697266,0.0,0.0,0.0
6270,-0.01373292040079832,-0.002075196709483862,0.9571539759635925,0.2891847789287567,-0.26953133940696716,-0.11328128725290298,9.609378814697266,0.0,0.0,0.0
6276,-0.01373292040079832,-0.002075196709483862,0.9571539759635925,0.2891847789287567,-0.26953133940696716,-0.11328128725290298,9.609378814697266,0.0,0.0,0.0
6283,-0.01373292040079832,-0.002075196709483862,0.9571539759635925,0.2891847789287567,-0.26953133940696716,-0.11328128725290298,9.609378814697266,0.0,0.0,0.0
6289,-0.01373292040079832,-0.002075196709483862,0.9571539759635925,0.2891847789287567,-0.26953133940696716,-0.07812502980232239,9.609378814697266,0.0,0.0,0.0
6295,-0.01373292040079832,-0.002075196709483862,0.9571539759635925,0.2891847789287567,-0.26953133940696716,-0.07812502980232239,9.609378814697266,0.0,0.0,0.0
6301,-0.01373292040079832,-0.002075196709483862,0.9571539759635925,0.2891847789287567,-0.26953133940696716,-0.07812502980232239,9.609378814697266,0.0,0.0,0.0
6307,-0.01373292040079832,-0.0021362320985645056,0.9571539759635925,0.2891847789287567,-0.26953133940696716,-0.07812502980232239,9.609378814697266,0.0,0.0,0.0
6315,-0.01373292040079832,-0.0021362320985645056,0.9571539759635925,0.2891847789287567,-0.26953133940696716,-0.11328128725290298,9.648441314697266,0.0,0.0,0.0
6322,-0.01373292040079832,-0.0021362320985645056,0.9571539759635925,0.2891847789287567,-0.26953133940696716,-0.11328128725290298,9.648441314697266,0.0,0.0,0.0
6329,-0.01373292040079832,-0.0021362320985645056,0.9571539759635925,0.2891847789287567,-0.26953133940696716,-0.11328128725290298,9.691410064697266,0.0,0.0,0.0
6335,-0.01373292040079832,-0.0021362320985645056,0.9571539759635925,0.2891847789287567,-0.23046883940696716,-0.11328128725290298,9.652347564697266,0.0,0.0,0.0
6341,-0.01373292040079832,-0.0021362320985645056,0.9571539759635925,0.2891847789287567,-0.23046883940696716,-0.11328128725290298,9.652347564697266,0.0,0.0,0.0
6348,-0.01373292040079832,-0.0021362320985645056,0.9571539759635925,0.2891847789287567,-0.23046883940696716,-0.11328128725290298,9.652347564697266,0.0,0.0,0.0
6354,-0.01373292040079832,-0.0021362320985645056,0.9571539759635925,0.2891847789287567,-0.23046883940696716,-0.11328128725290298,9.613285064697266,0.0,0.0,0.0
6361,-0.01373292040079832,-0.0021362320985645056,0.9571539759635925,0.2891847789287567,-0.23046883940696716,-0.11328128725290298,9.613285064697266,0.0,0.0,0.0
6368,-0.01373292040079832,-0.0021362320985645056,0.9571539759635925,0.2891847789287567,-0.26953133940696716,-0.11328128725290298,9.648441314697266,0.0,0.0,0.0
6374,-0.01373292040079832,-0.0021362320985645056,0.9571539759635925,0.2891847789287567,-0.23046883940696716,-0.11328128725290298,9.652347564697266,0.0,0.0,0.0
6380,-0.01373292040079832,-0.0021362320985645056,0.9571539759635925,0.2891847789287567,-0.23046883940696716,-0.11328128725290298,9.652347564697266,0.001953126396983862,0.003906252793967724,0.003906252793967724
6387,-0.01373292040079832,-0.002014161553233862,0.9571539759635925,0.2891847789287567,-0.23046883940696716,-0.11328128725290298,9.652347564697266,0.001953126396983862,0.003906252793967724,0.003906252793967724
6393,-0.01373292040079832,-0.002014161553233862,0.9571539759635925,0.2891847789287567,-0.23046883940696716,-0.11328128725290298,9.613285064697266,0.001953126396983862,0.003906252793967724,0.003906252793967724
6400,-0.01373292040079832,-0.002014161553233862,0.9571539759635925,0.2891847789287567,-0.23046883940696716,-0.11328128725290298,9.613285064697266,0.001953126396983862,0.007812505587935448,0.001953126396983862
6407,-0.01373292040079832,-0.002014161553233862,0.9571539759635925,0.2891847789287567,-0.23046883940696716,-0.11328128725290298,9.613285064697266,0.0,0.0,0.0
6413,-0.01373292040079832,-0.002014161553233862,0.9571539759635925,0.2891847789287567,-0.23046883940696716,-0.07812502980232239,9.652347564697266,0.0,0.0,0.0
6419,-0.01373292040079832,-0.002014161553233862,0.9571539759635925,0.2891847789287567,-0.23046883940696716,-0.07812502980232239,9.652347564697266,0.005859379190951586,-0.001953126396983862,0.001953126396983862
6426,-0.01373292040079832,-0.002014161553233862,0.9571539759635925,0.2891847789287567,-0.23046883940696716,-0.07812502980232239,9.652347564697266,0.005859379190951586,-0.003906252793967724,-0.001953126396983862
6432,-0.01373292040079832,-0.002014161553233862,0.9571539759635925,0.2891847789287567,-0.30468761920928955,-0.039062514901161194,9.578128814697266,0.005859379190951586,-0.003906252793967724,-0.001953126396983862
6438,-0.01373292040079832,-0.002014161553233862,0.9571539759635925,0.2891847789287567,-0.30468761920928955,-0.039062514901161194,9.578128814697266,-0.027343768626451492,-0.013671884313225746,0.003906252793967724
6446,-0.01373292040079832,-0.002014161553233862,0.9571539759635925,0.2891847789287567,-0.30468761920928955,-0.039062514901161194,9.578128814697266,-0.03125002235174179,-0.044921908527612686,-0.003906252793967724
6452,-0.01373292040079832,-0.002014161553233862,0.9571539759635925,0.2891847789287567,-0.30468761920928955,-0.11328128725290298,9.652347564697266,-0.03125002235174179,-0.044921908527612686,-0.003906252793967724
6458,-0.01373292040079832,-0.002014161553233862,0.9571539759635925,0.2891847789287567,-0.23046883940696716,-0.19140632450580597,9.648441314697266,-0.03125002235174179,-0.044921908527612686,-0.003906252793967724
6464,-0.01373292040079832,-0.002014161553233862,0.9571539759635925,0.2891847789287567,-0.23046883940696716,-0.19140632450580597,9.648441314697266,-0.021484389901161194,-0.07421880215406418,0.0
6471,-0.01373292040079832,-0.002014161553233862,0.9571539759635925,0.2891847789287567,-0.23046883940696716,-0.19140632450580597,9.648441314697266,-0.025390643626451492,-0.05664066597819328,0.003906252793967724
6477,-0.01373292040079832,-0.002014161553233862,0.9571539759635925,0.2891847789287567,-0.15234380960464478,-0.11328128725290298,9.609378814697266,-0.025390643626451492,-0.05664066597819328,0.003906252793967724
6482,-0.01373292040079832,-0.002014161553233862,0.9571539759635925,0.2891847789287567,-0.15234380960464478,-0.11328128725290298,9.609378814697266,0.001953126396983862,0.015625011175870895,-0.001953126396983862
6489,-0.01373292040079832,-0.002014161553233862,0.9571539759635925,0.2891847789287567,-0.15234380960464478,-0.11328128725290298,9.609378814697266,0.0,0.023437516763806343,0.0
6496,-0.01373292040079832,-0.002014161553233862,0.9571539759635925,0.2891847789287567,-0.15234380960464478,-0.11328128725290298,9.609378814697266,0.001953126396983862,0.015625011175870895,0.001953126396983862
6502,-0.01373292040079832,-0.002014161553233862,0.9571539759635925,0.2891847789287567,-0.26953133940696716,-0.11328128725290298,9.648441314697266,0.001953126396983862,0.015625011175870895,0.001953126396983862
6508,-0.01373292040079832,-0.002014161553233862,0.9571539759635925,0.2891847789287567,-0.26953133940696716,-0.11328128725290298,9.648441314697266,-0.003906252793967724,-0.005859379190951586,0.001953126396983862
6513,-0.01373292040079832,-0.002014161553233862,0.9571539759635925,0.2891847789287567,-0.26953133940696716,-0.11328128725290298,9.648441314697266,0.003906252793967724,-0.003906252793967724,0.003906252793967724
6519,-0.013061532750725746,-0.0026855487376451492,0.9572150111198425,0.2891237437725067,-0.26953133940696716,-0.11328128725290298,9.648441314697266,0.003906252793967724,-0.003906252793967724,0.003906252793967724
6526,-0.013061532750725746,-0.0026855487376451492,0.9572150111198425,0.2891237437725067,-0.19140632450580597,-0.15234380960464478,9.652347564697266,0.003906252793967724,-0.003906252793967724,0.003906252793967724
6533,-0.013061532750725746,-0.0026855487376451492,0.9572150111198425,0.2891237437725067,-0.19140632450580597,-0.15234380960464478,9.652347564697266,0.001953126396983862,0.005859379190951586,0.003906252793967724
6538,-0.013061532750725746,-0.0026855487376451492,0.9572150111198425,0.2891237437725067,-0.19140632450580597,-0.15234380960464478,9.652347564697266,0.003906252793967724,0.009765632450580597,-0.003906252793967724
6546,-0.013183603063225746,-0.0026245135813951492,0.9572150111198425,0.2891237437725067,-0.19140632450580597,-0.15234380960464478,9.652347564697266,0.003906252793967724,0.009765632450580597,-0.003906252793967724
6552,-0.013183603063225746,-0.0026245135813951492,0.9572150111198425,0.2891237437725067,-0.19140632450580597,-0.11328128725290298,9.613285064697266,0.003906252793967724,0.009765632450580597,-0.003906252793967724
6558,-0.013183603063225746,-0.0026245135813951492,0.9572150111198425,0.2891237437725067,-0.19140632450580597,-0.11328128725290298,9.613285064697266,0.007812505587935448,0.013671884313225746,-0.003906252793967724
6565,-0.013183603063225746,-0.0026245135813951492,0.9572150111198425,0.2891237437725067,-0.23046883940696716,-0.11328128725290298,9.687503814697266,0.007812505587935448,0.013671884313225746,-0.003906252793967724
6572,-0.013183603063225746,-0.0026245135813951492,0.9572150111198425,0.2891237437725067,-0.26953133940696716,-0.11328128725290298,9.609378814697266,0.007812505587935448,0.013671884313225746,-0.003906252793967724
6578,-0.013183603063225746,-0.0026245135813951492,0.9572150111198425,0.2891237437725067,-0.26953133940696716,-0.11328128725290298,9.609378814697266,-0.001953126396983862,0.0,0.003906252793967724
6585,-0.013183603063225746,-0.0026245135813951492,0.9572150111198425,0.2891237437725067,-0.26953133940696716,-0.11328128725290298,9.609378814697266,-0.001953126396983862,0.007812505587935448,0.001953126396983862
6591,-0.013183603063225746,-0.0026245135813951492,0.9572150111198425,0.2891237437725067,-0.26953133940696716,-0.11328128725290298,9.648441314697266,-0.001953126396983862,0.007812505587935448,0.001953126396983862
6597,-0.013183603063225746,-0.0026245135813951492,0.9572150111198425,0.2891237437725067,-0.26953133940696716,-0.11328128725290298,9.648441314697266,0.001953126396983862,0.003906252793967724,0.003906252793967724
6604,-0.013183603063225746,-0.0026245135813951492,0.9572150111198425,0.2891237437725067,-0.26953133940696716,-0.11328128725290298,9.648441314697266,0.001953126396983862,0.007812505587935448,0.001953126396983862
6610,-0.013183603063225746,-0.0026245135813951492,0.9572150111198425,0.2891237437725067,-0.26953133940696716,-0.15234380960464478,9.648441314697266,0.001953126396983862,0.007812505587935448,0.001953126396983862
6617,-0.013183603063225746,-0.0026245135813951492,0.9572150111198425,0.2891237437725067,-0.26953133940696716,-0.15234380960464478,9.648441314697266,0.007812505587935448,0.0,0.003906252793967724
6624,-0.013183603063225746,-0.0026245135813951492,0.9572150111198425,0.2891237437725067,-0.26953133940696716,-0.15234380960464478,9.648441314697266,-0.003906252793967724,0.007812505587935448,0.0
6630,-0.013183603063225746,-0.0026245135813951492,0.9572150111198425,0.2891237437725067,-0.26953133940696716,-0.11328128725290298,9.609378814697266,-0.003906252793967724,0.007812505587935448,0.0
6636,-0.013183603063225746,-0.0026245135813951492,0.9572150111198425,0.2891237437725067,-0.26953133940696716,-0.15234380960464478,9.648441314697266,-0.003906252793967724,0.007812505587935448,0.0
6641,-0.013183603063225746,-0.0026245135813951492,0.9572150111198425,0.2891237437725067,-0.26953133940696716,-0.15234380960464478,9.648441314697266,-0.001953126396983862,0.003906252793967724,-0.001953126396983862
6649,-0.013183603063225746,-0.0026245135813951492,0.9572150111198425,0.2891237437725067,-0.26953133940696716,-0.15234380960464478,9.648441314697266,0.0,0.001953126396983862,0.001953126396983862
6656,-0.013183603063225746,-0.0026245135813951492,0.9572150111198425,0.2891237437725067,-0.23046883940696716,-0.11328128725290298,9.578128814697266,0.0,0.001953126396983862,0.001953126396983862
6662,-0.013183603063225746,-0.0026245135813951492,0.9572150111198425,0.2891237437725067,-0.23046883940696716,-0.11328128725290298,9.578128814697266,-0.003906252793967724,-0.005859379190951586,0.001953126396983862
6669,-0.013183603063225746,-0.0026245135813951492,0.9572150111198425,0.2891237437725067,-0.23046883940696716,-0.11328128725290298,9.578128814697266,-0.001953126396983862,0.0,0.0
6675,-0.013183603063225746,-0.0026245135813951492,0.9572150111198425,0.2891237437725067,-0.26953133940696716,-0.11328128725290298,9.648441314697266,-0.001953126396983862,0.0,0.0
6681,-0.013183603063225746,-0.0026245135813951492,0.9572150111198425,0.2891237437725067,-0.26953133940696716,-0.11328128725290298,9.648441314697266,-0.001953126396983862,-0.005859379190951586,-0.003906252793967724
6687,-0.013183603063225746,-0.0026245135813951492,0.9572150111198425,0.2891237437725067,-0.26953133940696716,-0.11328128725290298,9.648441314697266,-0.005859379190951586,-0.005859379190951586,0.001953126396983862
6693,-0.013183603063225746,-0.0026245135813951492,0.9572150111198425,0.2891237437725067,-0.23046883940696716,-0.15234380960464478,9.652347564697266,-0.005859379190951586,-0.005859379190951586,0.001953126396983862
6700,-0.013183603063225746,-0.0026245135813951492,0.9572150111198425,0.2891237437725067,-0.23046883940696716,-0.15234380960464478,9.652347564697266,-0.007812505587935448,0.005859379190951586,0.0
6706,-0.013183603063225746,-0.0026245135813951492,0.9572150111198425,0.2891237437725067,-0.23046883940696716,-0.15234380960464478,9.652347564697266,-0.003906252793967724,-0.003906252793967724,-0.003906252793967724
6711,-0.013183603063225746,-0.0026245135813951492,0.9572150111198425,0.2891237437725067,-0.23046883940696716,-0.15234380960464478,9.652347564697266,0.003906252793967724,-0.005859379190951586,0.003906252793967724
6718,-0.013183603063225746,-0.0026245135813951492,0.9572150111198425,0.2891237437725067,-0.23046883940696716,-0.15234380960464478,9.652347564697266,-0.001953126396983862,0.0,0.0
6724,-0.013183603063225746,-0.0026245135813951492,0.9572150111198425,0.2891237437725067,-0.23046883940696716,-0.11328128725290298,9.613285064697266,-0.001953126396983862,0.0,0.0
6730,-0.013183603063225746,-0.0026245135813951492,0.9572150111198425,0.2891237437725067,-0.23046883940696716,-0.11328128725290298,9.613285064697266,0.003906252793967724,0.005859379190951586,-0.001953126396983862
6736,-0.013183603063225746,-0.0026245135813951492,0.9572150111198425,0.2891237437725067,-0.23046883940696716,-0.11328128725290298,9.613285064697266,-0.001953126396983862,0.005859379190951586,0.0
6744,-0.013549814000725746,-0.0025024432688951492,0.9572150111198425,0.2891237437725067,-0.23046883940696716,-0.11328128725290298,9.613285064697266,-0.001953126396983862,0.005859379190951586,0.0
6750,-0.013549814000725746,-0.0025024432688951492,0.9572150111198425,0.2891237437725067,-0.23046883940696716,-0.11328128725290298,9.652347564697266,-0.001953126396983862,0.005859379190951586,0.0
6756,-0.013549814000725746,-0.0025024432688951492,0.9572150111198425,0.2891237437725067,-0.23046883940696716,-0.11328128725290298,9.652347564697266,0.001953126396983862,0.0,0.001953126396983862
6763,-0.013549814000725746,-0.0025024432688951492,0.9572150111198425,0.2891237437725067,-0.23046883940696716,-0.11328128725290298,9.652347564697266,0.001953126396983862,0.0,0.001953126396983862
6769,-0.013549814000725746,-0.0025024432688951492,0.9572150111198425,0.2891237437725067,-0.23046883940696716,-0.11328128725290298,9.613285064697266,0.001953126396983862,0.0,0.001953126396983862
6775,-0.013549814000725746,-0.0025024432688951492,0.9572150111198425,0.2891237437725067,-0.23046883940696716,-0.11328128725290298,9.613285064697266,-0.003906252793967724,0.003906252793967724,0.003906252793967724
6781,-0.013549814000725746,-0.0025024432688951492,0.9572150111198425,0.2891237437725067,-0.23046883940696716,-0.11328128725290298,9.613285064697266,0.0,-0.003906252793967724,0.001953126396983862
6788,-0.013549814000725746,-0.0025024432688951492,0.9572150111198425,0.2891237437725067,-0.23046883940696716,-0.11328128725290298,9.652347564697266,0.0,-0.003906252793967724,0.001953126396983862
