Timestamp,QI,QJ,QK,QR,AX,AY,AZ
2459000,0.0,0.0,0.0,0.0,-0.15234380960464478,0.23046883940696716,9.652347564697266
2462688,0.0,0.0,0.0,0.0,-0.19140632450580597,0.26953133940696716,9.652347564697266
2466384,0.0,0.0,0.0,0.0,-0.19140632450580597,0.30468761920928955,9.609378814697266
2470400,0.0,0.0,0.0,0.0,-0.11328128725290298,0.26953133940696716,9.648441314697266
2474652,0.0,0.0,0.0,0.0,-0.23046883940696716,0.26953133940696716,9.652347564697266
2478732,0.0,0.0,0.0,0.0,-0.15234380960464478,0.26953133940696716,9.648441314697266
2482808,0.0,0.0,0.0,0.0,-0.15234380960464478,0.26953133940696716,9.609378814697266
2486812,0.0,0.0,0.0,0.0,-0.15234380960464478,0.26953133940696716,9.648441314697266
2490664,0.0,0.0,0.0,0.0,-0.19140632450580597,0.30468761920928955,9.609378814697266
2494720,0.0,0.0,0.0,0.0,-0.11328128725290298,0.26953133940696716,9.609378814697266
2498032,0.0,0.0,0.0,0.0,-0.15234380960464478,0.26953133940696716,9.609378814697266
2503340,0.0,0.0,0.0,0.0,-0.19140632450580597,0.26953133940696716,9.578128814697266
2507012,0.0,0.0,0.0,0.0,-0.15234380960464478,0.23046883940696716,9.613285064697266
2510320,0.0,0.0,0.0,0.0,-0.15234380960464478,0.26953133940696716,9.648441314697266
2516608,-0.002014161553233862,0.015869151800870895,0.9190680384635925,0.3936770260334015,-0.15234380960464478,0.26953133940696716,9.648441314697266
2520092,-0.002014161553233862,0.015869151800870895,0.9191290736198425,0.3936770260334015,-0.15234380960464478,0.26953133940696716,9.648441314697266
2524120,-0.002014161553233862,0.015869151800870895,0.9191290736198425,0.3936770260334015,-0.15234380960464478,0.26953133940696716,9.648441314697266
2528664,-0.002014161553233862,0.015869151800870895,0.9191290736198425,0.3936770260334015,-0.19140632450580597,0.26953133940696716,9.652347564697266
2533768,-0.002014161553233862,0.015869151800870895,0.9191290736198425,0.3936770260334015,-0.19140632450580597,0.26953133940696716,9.652347564697266
2538396,-0.002014161553233862,0.015869151800870895,0.9191290736198425,0.3936770260334015,-0.15234380960464478,0.26953133940696716,9.542972564697266
2543964,-0.002014161553233862,0.015869151800870895,0.9191290736198425,0.3936770260334015,-0.19140632450580597,0.23046883940696716,9.582035064697266
2548892,-0.002014161553233862,0.015869151800870895,0.9191290736198425,0.3936770260334015,-0.11328128725290298,0.23046883940696716,9.652347564697266
2553000,-0.002014161553233862,0.015869151800870895,0.9191290736198425,0.3936770260334015,-0.15234380960464478,0.23046883940696716,9.652347564697266
2557420,-0.002014161553233862,0.015869151800870895,0.9191290736198425,0.3936770260334015,-0.15234380960464478,0.30468761920928955,9.539066314697266
2561612,-0.002014161553233862,0.015869151800870895,0.9191290736198425,0.3936770260334015,-0.15234380960464478,0.30468761920928955,9.539066314697266
2566556,-0.002014161553233862,0.015869151800870895,0.9191290736198425,0.3936770260334015,-0.15234380960464478,0.30468761920928955,9.539066314697266
2571116,-0.002014161553233862,0.015869151800870895,0.9191290736198425,0.3936770260334015,-0.15234380960464478,0.30468761920928955,9.539066314697266
2575716,-0.002014161553233862,0.015869151800870895,0.9191290736198425,0.3936770260334015,-0.15234380960464478,0.30468761920928955,9.539066314697266
2580464,-0.002014161553233862,0.015869151800870895,0.9191290736198425,0.3936770260334015,-0.15234380960464478,0.30468761920928955,9.613285064697266
2585384,-0.002014161553233862,0.015869151800870895,0.9191290736198425,0.3936770260334015,-0.15234380960464478,0.30468761920928955,9.613285064697266
2589972,-0.001953126396983862,0.015869151800870895,0.9191290736198425,0.3936770260334015,-0.15234380960464478,0.30468761920928955,9.613285064697266
2594388,-0.001953126396983862,0.015869151800870895,0.9191290736198425,0.3936770260334015,-0.15234380960464478,0.30468761920928955,9.613285064697266
2597876,-0.001953126396983862,0.015869151800870895,0.9191290736198425,0.3936770260334015,-0.15234380960464478,0.30468761920928955,9.613285064697266
2602944,-0.001953126396983862,0.015869151800870895,0.9191290736198425,0.3936770260334015,-0.15234380960464478,0.26953133940696716,9.609378814697266
2608040,-0.001953126396983862,0.015869151800870895,0.9191290736198425,0.3936770260334015,-0.19140632450580597,0.26953133940696716,9.652347564697266
2612596,-0.001953126396983862,0.015869151800870895,0.9191290736198425,0.3936770260334015,-0.19140632450580597,0.26953133940696716,9.652347564697266
2617516,-0.001953126396983862,0.015869151800870895,0.9191290736198425,0.3936770260334015,-0.15234380960464478,0.26953133940696716,9.609378814697266
2621572,-0.001953126396983862,0.015869151800870895,0.9191290736198425,0.3936770260334015,-0.15234380960464478,0.26953133940696716,9.609378814697266
2625776,-0.001953126396983862,0.015869151800870895,0.9191290736198425,0.3936770260334015,-0.15234380960464478,0.26953133940696716,9.609378814697266
2630700,-0.001953126396983862,0.015869151800870895,0.9191290736198425,0.3936770260334015,-0.19140632450580597,0.23046883940696716,9.609378814697266
2635608,-0.001953126396983862,0.015869151800870895,0.9191290736198425,0.3936770260334015,-0.15234380960464478,0.23046883940696716,9.652347564697266
2639080,-0.002014161553233862,0.015869151800870895,0.9191290736198425,0.3936770260334015,-0.15234380960464478,0.23046883940696716,9.652347564697266
2644040,-0.002014161553233862,0.015869151800870895,0.9191290736198425,0.3936770260334015,-0.15234380960464478,0.30468761920928955,9.613285064697266
2648452,-0.001953126396983862,0.015869151800870895,0.9191290736198425,0.3936770260334015,-0.15234380960464478,0.30468761920928955,9.613285064697266
2653016,-0.001953126396983862,0.015930186957120895,0.9191290736198425,0.3936770260334015,-0.15234380960464478,0.30468761920928955,9.613285064697266
2657052,-0.001953126396983862,0.015930186957120895,0.9191290736198425,0.3936770260334015,-0.15234380960464478,0.30468761920928955,9.613285064697266
2662136,-0.001953126396983862,0.015930186957120895,0.9191290736198425,0.3936770260334015,-0.15234380960464478,0.30468761920928955,9.613285064697266
2667048,-0.001953126396983862,0.015930186957120895,0.9191290736198425,0.3936770260334015,-0.19140632450580597,0.23046883940696716,9.609378814697266
2672936,-0.002014161553233862,0.015869151800870895,0.9191290736198425,0.3936770260334015,-0.19140632450580597,0.23046883940696716,9.609378814697266
2677480,-0.002014161553233862,0.015869151800870895,0.9191290736198425,0.3936770260334015,-0.19140632450580597,0.23046883940696716,9.609378814697266
2682020,-0.002014161553233862,0.015869151800870895,0.9191290736198425,0.3936770260334015,-0.19140632450580597,0.23046883940696716,9.609378814697266
2686680,-0.002014161553233862,0.015930186957120895,0.9191290736198425,0.3936770260334015,-0.19140632450580597,0.23046883940696716,9.609378814697266
2691256,-0.002014161553233862,0.015869151800870895,0.9191290736198425,0.3936770260334015,-0.19140632450580597,0.23046883940696716,9.609378814697266
2695304,-0.002014161553233862,0.015869151800870895,0.9191290736198425,0.3936770260334015,-0.15234380960464478,0.26953133940696716,9.609378814697266
2699728,-0.002014161553233862,0.015869151800870895,0.9191290736198425,0.3936770260334015,-0.19140632450580597,0.23046883940696716,9.582035064697266
2704316,-0.002014161553233862,0.015930186957120895,0.9191290736198425,0.3936770260334015,-0.19140632450580597,0.23046883940696716,9.582035064697266
2708860,-0.002014161553233862,0.015930186957120895,0.9191290736198425,0.3936770260334015,-0.19140632450580597,0.23046883940696716,9.582035064697266
2712928,-0.002014161553233862,0.015930186957120895,0.9191290736198425,0.3936770260334015,-0.15234380960464478,0.26953133940696716,9.609378814697266
2718208,-0.002014161553233862,0.015930186957120895,0.9191290736198425,0.3936770260334015,-0.19140632450580597,0.23046883940696716,9.609378814697266
2722280,-0.002014161553233862,0.015930186957120895,0.9191290736198425,0.3936770260334015,-0.19140632450580597,0.26953133940696716,9.652347564697266
2727220,-0.002075196709483862,0.015930186957120895,0.9191290736198425,0.3936770260334015,-0.19140632450580597,0.26953133940696716,9.652347564697266
2731788,-0.002075196709483862,0.015930186957120895,0.9191290736198425,0.3936770260334015,-0.19140632450580597,0.26953133940696716,9.652347564697266
2736344,-0.002075196709483862,0.015930186957120895,0.9191290736198425,0.3936770260334015,-0.19140632450580597,0.26953133940696716,9.652347564697266
2740540,-0.002075196709483862,0.015930186957120895,0.9191290736198425,0.3936770260334015,-0.19140632450580597,0.26953133940696716,9.652347564697266
2745816,-0.002075196709483862,0.015930186957120895,0.9191290736198425,0.3936770260334015,-0.19140632450580597,0.26953133940696716,9.652347564697266
2750840,-0.002075196709483862,0.015930186957120895,0.9191290736198425,0.3936770260334015,-0.15234380960464478,0.26953133940696716,9.609378814697266
2754908,-0.002075196709483862,0.015930186957120895,0.9191290736198425,0.3936770260334015,-0.15234380960464478,0.26953133940696716,9.609378814697266
2759148,-0.002075196709483862,0.015930186957120895,0.9190680384635925,0.3937380611896515,-0.15234380960464478,0.26953133940696716,9.609378814697266
2763728,-0.002075196709483862,0.015930186957120895,0.9190680384635925,0.3936770260334015,-0.15234380960464478,0.26953133940696716,9.609378814697266
2768288,-0.002075196709483862,0.015930186957120895,0.9190680384635925,0.3936770260334015,-0.19140632450580597,0.30468761920928955,9.609378814697266
2773212,-0.002075196709483862,0.015930186957120895,0.9190680384635925,0.3936770260334015,-0.11328128725290298,0.26953133940696716,9.648441314697266
2777768,-0.002075196709483862,0.015930186957120895,0.9190680384635925,0.3936770260334015,-0.11328128725290298,0.26953133940696716,9.582035064697266
2781836,-0.0021362320985645056,0.015930186957120895,0.9191290736198425,0.3936770260334015,-0.11328128725290298,0.26953133940696716,9.582035064697266
2786404,-0.0021362320985645056,0.015930186957120895,0.9190680384635925,0.3937380611896515,-0.11328128725290298,0.26953133940696716,9.582035064697266
2790980,-0.0021362320985645056,0.015869151800870895,0.9190680384635925,0.3937380611896515,-0.11328128725290298,0.26953133940696716,9.582035064697266
2795548,-0.0021362320985645056,0.015930186957120895,0.9190680384635925,0.3937380611896515,-0.11328128725290298,0.26953133940696716,9.582035064697266
2799728,-0.0021362320985645056,0.015930186957120895,0.9190680384635925,0.3937380611896515,-0.11328128725290298,0.26953133940696716,9.582035064697266
2803932,-0.0021362320985645056,0.015930186957120895,0.9190680384635925,0.3937380611896515,-0.11328128725290298,0.26953133940696716,9.582035064697266
2808476,-0.0021362320985645056,0.015930186957120895,0.9190680384635925,0.3937380611896515,-0.15234380960464478,0.23046883940696716,9.613285064697266
2813412,-0.0021362320985645056,0.015930186957120895,0.9190680384635925,0.3937380611896515,-0.15234380960464478,0.26953133940696716,9.582035064697266
2817476,-0.0021362320985645056,0.015930186957120895,0.9190680384635925,0.3937380611896515,-0.15234380960464478,0.26953133940696716,9.582035064697266
2822616,-0.0021362320985645056,0.015930186957120895,0.9190680384635925,0.3937380611896515,-0.15234380960464478,0.26953133940696716,9.582035064697266
2827396,-0.0021362320985645056,0.015930186957120895,0.9190680384635925,0.3937380611896515,-0.15234380960464478,0.23046883940696716,9.652347564697266
2832720,-0.0021362320985645056,0.015930186957120895,0.9191290736198425,0.3936770260334015,-0.15234380960464478,0.23046883940696716,9.652347564697266
2837368,-0.0021362320985645056,0.015991222113370895,0.9191290736198425,0.3936770260334015,-0.15234380960464478,0.23046883940696716,9.652347564697266
2841972,-0.0021362320985645056,0.015930186957120895,0.9191290736198425,0.3936770260334015,-0.15234380960464478,0.23046883940696716,9.652347564697266
2846024,-0.0021362320985645056,0.015930186957120895,0.9191290736198425,0.3936770260334015,-0.19140632450580597,0.23046883940696716,9.609378814697266
2850604,-0.0021362320985645056,0.015930186957120895,0.9191290736198425,0.3936770260334015,-0.19140632450580597,0.26953133940696716,9.578128814697266
2855144,-0.0021362320985645056,0.015930186957120895,0.9191290736198425,0.3936770260334015,-0.19140632450580597,0.26953133940696716,9.578128814697266
2859704,-0.0021362320985645056,0.015930186957120895,0.9191290736198425,0.3936770260334015,-0.19140632450580597,0.26953133940696716,9.578128814697266
2864100,-0.0021362320985645056,0.015930186957120895,0.9191290736198425,0.3936770260334015,-0.15234380960464478,0.30468761920928955,9.613285064697266
2868804,-0.0021362320985645056,0.015930186957120895,0.9191290736198425,0.3936770260334015,-0.15234380960464478,0.30468761920928955,9.613285064697266
2872876,-0.0021362320985645056,0.015930186957120895,0.9191290736198425,0.3936770260334015,-0.19140632450580597,0.26953133940696716,9.613285064697266
2877296,-0.0021362320985645056,0.015930186957120895,0.9191290736198425,0.3936770260334015,-0.15234380960464478,0.23046883940696716,9.652347564697266
2881436,-0.0021362320985645056,0.015930186957120895,0.9191290736198425,0.3936770260334015,-0.15234380960464478,0.23046883940696716,9.652347564697266
2886688,-0.0021362320985645056,0.015930186957120895,0.9191290736198425,0.3936770260334015,-0.15234380960464478,0.23046883940696716,9.652347564697266
2891668,-0.0021362320985645056,0.015930186957120895,0.9191290736198425,0.3936770260334015,-0.15234380960464478,0.23046883940696716,9.613285064697266
2895936,-0.0021362320985645056,0.015991222113370895,0.9191290736198425,0.3936770260334015,-0.15234380960464478,0.23046883940696716,9.613285064697266
2899988,-0.0021362320985645056,0.015991222113370895,0.9191290736198425,0.3936770260334015,-0.11328128725290298,0.26953133940696716,9.648441314697266
2904532,-0.0021362320985645056,0.015991222113370895,0.9191290736198425,0.3936770260334015,-0.15234380960464478,0.26953133940696716,9.582035064697266
2908624,-0.0021362320985645056,0.015991222113370895,0.9191290736198425,0.3936770260334015,-0.15234380960464478,0.30468761920928955,9.652347564697266
2914248,-0.0021362320985645056,0.015991222113370895,0.9191290736198425,0.3936770260334015,-0.15234380960464478,0.30468761920928955,9.652347564697266
2918436,-0.0021362320985645056,0.015930186957120895,0.9191290736198425,0.3936770260334015,-0.15234380960464478,0.30468761920928955,9.652347564697266
2923144,-0.0021362320985645056,0.015991222113370895,0.9191290736198425,0.3936770260334015,-0.15234380960464478,0.30468761920928955,9.652347564697266
2927220,-0.0021362320985645056,0.015991222113370895,0.9191290736198425,0.3936770260334015,-0.15234380960464478,0.26953133940696716,9.582035064697266
2931780,-0.0021362320985645056,0.015991222113370895,0.9191290736198425,0.3936770260334015,-0.19140632450580597,0.23046883940696716,9.648441314697266
2936344,-0.0021362320985645056,0.015991222113370895,0.9191290736198425,0.3936770260334015,-0.15234380960464478,0.23046883940696716,9.613285064697266
2941116,-0.0021362320985645056,0.015991222113370895,0.9191290736198425,0.3936770260334015,-0.15234380960464478,0.23046883940696716,9.613285064697266
2945516,-0.0021362320985645056,0.015991222113370895,0.9191290736198425,0.3936770260334015,-0.15234380960464478,0.26953133940696716,9.609378814697266
2950084,-0.0021362320985645056,0.016052257269620895,0.9191290736198425,0.3936770260334015,-0.15234380960464478,0.26953133940696716,9.609378814697266
2953564,-0.0021362320985645056,0.016052257269620895,0.9191290736198425,0.3936770260334015,-0.15234380960464478,0.26953133940696716,9.609378814697266
2958488,-0.0021362320985645056,0.016052257269620895,0.9191290736198425,0.3936770260334015,-0.15234380960464478,0.23046883940696716,9.613285064697266
2963076,-0.0021972672548145056,0.015991222113370895,0.9191290736198425,0.3936770260334015,-0.15234380960464478,0.23046883940696716,9.613285064697266
2967640,-0.0021972672548145056,0.015991222113370895,0.9191290736198425,0.3936770260334015,-0.15234380960464478,0.23046883940696716,9.613285064697266
2971704,-0.0021972672548145056,0.015991222113370895,0.9191290736198425,0.3936770260334015,-0.15234380960464478,0.30468761920928955,9.687503814697266
2975916,-0.0021972672548145056,0.015991222113370895,0.9191290736198425,0.3936770260334015,-0.15234380960464478,0.30468761920928955,9.687503814697266
2980760,-0.0021972672548145056,0.015991222113370895,0.9191290736198425,0.3936770260334015,-0.15234380960464478,0.23046883940696716,9.652347564697266
2985316,-0.0021972672548145056,0.015991222113370895,0.9191290736198425,0.3936770260334015,-0.15234380960464478,0.23046883940696716,9.652347564697266
2989872,-0.0021972672548145056,0.015991222113370895,0.9191290736198425,0.3936770260334015,-0.15234380960464478,0.26953133940696716,9.609378814697266
2993940,-0.0021972672548145056,0.015991222113370895,0.9191290736198425,0.3936770260334015,-0.15234380960464478,0.26953133940696716,9.609378814697266
2997976,-0.0021972672548145056,0.015991222113370895,0.9191290736198425,0.3936770260334015,-0.15234380960464478,0.26953133940696716,9.609378814697266
3002688,-0.0021972672548145056,0.015991222113370895,0.9191290736198425,0.3936770260334015,-0.15234380960464478,0.26953133940696716,9.609378814697266
3006764,-0.0021972672548145056,0.015991222113370895,0.9191290736198425,0.3936770260334015,-0.19140632450580597,0.23046883940696716,9.609378814697266
3011360,-0.0021972672548145056,0.015991222113370895,0.9191290736198425,0.3936770260334015,-0.19140632450580597,0.26953133940696716,9.652347564697266
3015896,-0.0021972672548145056,0.015991222113370895,0.9191290736198425,0.3936770260334015,-0.19140632450580597,0.26953133940696716,9.652347564697266
3020464,-0.0021972672548145056,0.015991222113370895,0.9191290736198425,0.3936770260334015,-0.19140632450580597,0.26953133940696716,9.652347564697266
3024660,-0.0021972672548145056,0.015991222113370895,0.9191290736198425,0.3936770260334015,-0.19140632450580597,0.26953133940696716,9.652347564697266
3029216,-0.0021972672548145056,0.015991222113370895,0.9191290736198425,0.3936770260334015,-0.19140632450580597,0.26953133940696716,9.652347564697266
3033488,-0.0021972672548145056,0.015991222113370895,0.9191290736198425,0.3936770260334015,-0.19140632450580597,0.26953133940696716,9.652347564697266
3038428,-0.0022583024110645056,0.015991222113370895,0.9191290736198425,0.3936770260334015,-0.19140632450580597,0.26953133940696716,9.652347564697266
3042972,-0.0021972672548145056,0.015991222113370895,0.9191290736198425,0.3936770260334015,-0.19140632450580597,0.26953133940696716,9.652347564697266
3047532,-0.0021972672548145056,0.015991222113370895,0.9191290736198425,0.3936770260334015,-0.19140632450580597,0.26953133940696716,9.652347564697266
3051852,-0.0022583024110645056,0.015991222113370895,0.9191290736198425,0.3936770260334015,-0.19140632450580597,0.26953133940696716,9.652347564697266
3056072,-0.0022583024110645056,0.015991222113370895,0.9191290736198425,0.3936770260334015,-0.19140632450580597,0.26953133940696716,9.652347564697266
3060156,-0.0022583024110645056,0.015991222113370895,0.9191290736198425,0.3936770260334015,-0.19140632450580597,0.30468761920928955,9.582035064697266
3064704,-0.0022583024110645056,0.015991222113370895,0.9191290736198425,0.3936770260334015,-0.19140632450580597,0.30468761920928955,9.582035064697266
3068768,-0.0022583024110645056,0.015991222113370895,0.9191290736198425,0.3936770260334015,-0.19140632450580597,0.26953133940696716,9.578128814697266
3073376,-0.0022583024110645056,0.015930186957120895,0.9191290736198425,0.3936770260334015,-0.19140632450580597,0.26953133940696716,9.578128814697266
3076848,-0.0022583024110645056,0.015930186957120895,0.9191290736198425,0.3936770260334015,-0.19140632450580597,0.26953133940696716,9.578128814697266
3081780,-0.0022583024110645056,0.015930186957120895,0.9191290736198425,0.3936770260334015,-0.19140632450580597,0.26953133940696716,9.578128814697266
3086712,-0.0023193375673145056,0.015930186957120895,0.9191290736198425,0.3936770260334015,-0.19140632450580597,0.26953133940696716,9.578128814697266
3090764,-0.0023193375673145056,0.015930186957120895,0.9191290736198425,0.3936770260334015,-0.11328128725290298,0.34375011920928955,9.609378814697266
3094820,-0.0023193375673145056,0.015930186957120895,0.9191290736198425,0.3936770260334015,-0.11328128725290298,0.34375011920928955,9.609378814697266
3099536,-0.0023193375673145056,0.015869151800870895,0.9191290736198425,0.3936770260334015,-0.11328128725290298,0.34375011920928955,9.609378814697266
3104536,-0.0023193375673145056,0.015869151800870895,0.9191290736198425,0.3936770260334015,-0.15234380960464478,0.26953133940696716,9.582035064697266
3109476,-0.0023193375673145056,0.015869151800870895,0.9191290736198425,0.3936770260334015,-0.19140632450580597,0.26953133940696716,9.652347564697266
3114124,-0.0023193375673145056,0.015869151800870895,0.9191290736198425,0.3936770260334015,-0.15234380960464478,0.26953133940696716,9.648441314697266
3118688,-0.0023193375673145056,0.015869151800870895,0.9191290736198425,0.3936770260334015,-0.15234380960464478,0.26953133940696716,9.648441314697266
3123080,-0.0023193375673145056,0.015869151800870895,0.9191290736198425,0.3936770260334015,-0.15234380960464478,0.26953133940696716,9.609378814697266
3127276,-0.0023193375673145056,0.015930186957120895,0.9191290736198425,0.3936770260334015,-0.15234380960464478,0.26953133940696716,9.609378814697266
3132188,-0.0023193375673145056,0.015930186957120895,0.9191290736198425,0.3936770260334015,-0.11328128725290298,0.23046883940696716,9.613285064697266
3136740,-0.0023193375673145056,0.015930186957120895,0.9191290736198425,0.3936770260334015,-0.11328128725290298,0.23046883940696716,9.613285064697266
3141336,-0.0023193375673145056,0.015930186957120895,0.9191290736198425,0.3936770260334015,-0.19140632450580597,0.26953133940696716,9.652347564697266
3146260,-0.0023193375673145056,0.015930186957120895,0.9191290736198425,0.3936770260334015,-0.15234380960464478,0.26953133940696716,9.542972564697266
3150336,-0.0023193375673145056,0.015930186957120895,0.9191290736198425,0.3936770260334015,-0.15234380960464478,0.26953133940696716,9.609378814697266
3154908,-0.0023193375673145056,0.015930186957120895,0.9190680384635925,0.3936770260334015,-0.15234380960464478,0.26953133940696716,9.609378814697266
3159120,-0.0023193375673145056,0.015930186957120895,0.9190680384635925,0.3936770260334015,-0.15234380960464478,0.26953133940696716,9.609378814697266
3163684,-0.0023193375673145056,0.015930186957120895,0.9190680384635925,0.3936770260334015,-0.15234380960464478,0.30468761920928955,9.652347564697266
3168460,-0.0023193375673145056,0.015930186957120895,0.9190680384635925,0.3936770260334015,-0.15234380960464478,0.26953133940696716,9.609378814697266
3173044,-0.0023193375673145056,0.015930186957120895,0.9190680384635925,0.3936770260334015,-0.15234380960464478,0.26953133940696716,9.582035064697266
3177104,-0.0023193375673145056,0.015930186957120895,0.9190680384635925,0.3936770260334015,-0.23046883940696716,0.26953133940696716,9.613285064697266
3181696,-0.0023193375673145056,0.015930186957120895,0.9190680384635925,0.3937380611896515,-0.23046883940696716,0.26953133940696716,9.613285064697266
3185736,-0.0023193375673145056,0.015930186957120895,0.9190680384635925,0.3937380611896515,-0.23046883940696716,0.26953133940696716,9.613285064697266
3190476,-0.0023803727235645056,0.015930186957120895,0.9190680384635925,0.3937380611896515,-0.23046883940696716,0.26953133940696716,9.613285064697266
3195104,-0.0023803727235645056,0.015930186957120895,0.9190680384635925,0.3937380611896515,-0.15234380960464478,0.23046883940696716,9.613285064697266
3199520,-0.0023193375673145056,0.015930186957120895,0.9190680384635925,0.3937380611896515,-0.15234380960464478,0.23046883940696716,9.613285064697266
3204092,-0.0023193375673145056,0.015930186957120895,0.9190680384635925,0.3937380611896515,-0.15234380960464478,0.23046883940696716,9.613285064697266
3208636,-0.0023193375673145056,0.015930186957120895,0.9190680384635925,0.3937380611896515,-0.15234380960464478,0.23046883940696716,9.613285064697266
3212828,-0.0023193375673145056,0.015930186957120895,0.9190680384635925,0.3937380611896515,-0.15234380960464478,0.23046883940696716,9.613285064697266
3217412,-0.0023193375673145056,0.015930186957120895,0.9190680384635925,0.3937380611896515,-0.15234380960464478,0.23046883940696716,9.613285064697266
3221452,-0.0023193375673145056,0.015930186957120895,0.9190680384635925,0.3937380611896515,-0.11328128725290298,0.30468761920928955,9.613285064697266
3226420,-0.0023193375673145056,0.015930186957120895,0.9190680384635925,0.3936770260334015,-0.11328128725290298,0.30468761920928955,9.613285064697266
3229900,-0.0023193375673145056,0.015930186957120895,0.9190680384635925,0.3936770260334015,-0.11328128725290298,0.30468761920928955,9.613285064697266
3234808,-0.0023193375673145056,0.015930186957120895,0.9190680384635925,0.3936770260334015,-0.19140632450580597,0.26953133940696716,9.652347564697266
3238864,-0.0023193375673145056,0.015930186957120895,0.9190680384635925,0.3936770260334015,-0.19140632450580597,0.26953133940696716,9.652347564697266
3243812,-0.0023193375673145056,0.015930186957120895,0.9190680384635925,0.3936770260334015,-0.19140632450580597,0.26953133940696716,9.652347564697266
3248380,-0.0023803727235645056,0.015930186957120895,0.9190680384635925,0.3936770260334015,-0.19140632450580597,0.26953133940696716,9.652347564697266
3252604,-0.0023193375673145056,0.015930186957120895,0.9190680384635925,0.3936770260334015,-0.19140632450580597,0.26953133940696716,9.652347564697266
3257324,-0.0023193375673145056,0.015930186957120895,0.9190680384635925,0.3936770260334015,-0.11328128725290298,0.26953133940696716,9.609378814697266
3262036,-0.0023803727235645056,0.015930186957120895,0.9191290736198425,0.3936770260334015,-0.11328128725290298,0.26953133940696716,9.609378814697266
3266084,-0.0023803727235645056,0.015930186957120895,0.9191290736198425,0.3936770260334015,-0.11328128725290298,0.26953133940696716,9.648441314697266
3270664,-0.0023803727235645056,0.015930186957120895,0.9191290736198425,0.3936770260334015,-0.19140632450580597,0.30468761920928955,9.691410064697266
3275204,-0.0023193375673145056,0.015930186957120895,0.9190680384635925,0.3937380611896515,-0.19140632450580597,0.30468761920928955,9.691410064697266
3279772,-0.0023803727235645056,0.015930186957120895,0.9190680384635925,0.3937380611896515,-0.19140632450580597,0.30468761920928955,9.691410064697266
3284344,-0.0023193375673145056,0.015991222113370895,0.9190680384635925,0.3936770260334015,-0.19140632450580597,0.30468761920928955,9.691410064697266
3288416,-0.0023193375673145056,0.015991222113370895,0.9190680384635925,0.3936770260334015,-0.19140632450580597,0.30468761920928955,9.691410064697266
3292624,-0.0023193375673145056,0.015930186957120895,0.9190680384635925,0.3937380611896515,-0.19140632450580597,0.30468761920928955,9.691410064697266
3297212,-0.0023193375673145056,0.015930186957120895,0.9190680384635925,0.3937380611896515,-0.19140632450580597,0.30468761920928955,9.691410064697266
3301760,-0.0023193375673145056,0.015930186957120895,0.9190680384635925,0.3937380611896515,-0.15234380960464478,0.23046883940696716,9.578128814697266
3307080,-0.0023803727235645056,0.015991222113370895,0.9190680384635925,0.3937380611896515,-0.15234380960464478,0.23046883940696716,9.578128814697266
3311348,-0.0023193375673145056,0.015991222113370895,0.9190680384635925,0.3937380611896515,-0.15234380960464478,0.23046883940696716,9.578128814697266
3315760,-0.0023193375673145056,0.015991222113370895,0.9190680384635925,0.3937380611896515,-0.15234380960464478,0.26953133940696716,9.582035064697266
3320340,-0.0023193375673145056,0.016052257269620895,0.9190680384635925,0.3937380611896515,-0.15234380960464478,0.26953133940696716,9.582035064697266
3324900,-0.0023193375673145056,0.016052257269620895,0.9190680384635925,0.3937380611896515,-0.15234380960464478,0.26953133940696716,9.582035064697266
3328952,-0.0023193375673145056,0.016052257269620895,0.9190680384635925,0.3937380611896515,-0.15234380960464478,0.26953133940696716,9.582035064697266
3333032,-0.0023193375673145056,0.016052257269620895,0.9190680384635925,0.3937380611896515,-0.15234380960464478,0.26953133940696716,9.582035064697266
3337252,-0.0023193375673145056,0.016052257269620895,0.9190680384635925,0.3937380611896515,-0.15234380960464478,0.26953133940696716,9.582035064697266
3341808,-0.0023803727235645056,0.016052257269620895,0.9190680384635925,0.3937380611896515,-0.15234380960464478,0.26953133940696716,9.582035064697266
3346372,-0.0023803727235645056,0.016052257269620895,0.9190680384635925,0.3937380611896515,-0.19140632450580597,0.26953133940696716,9.578128814697266
3350920,-0.0023803727235645056,0.016052257269620895,0.9190680384635925,0.3937380611896515,-0.19140632450580597,0.30468761920928955,9.609378814697266
3355016,-0.0023803727235645056,0.016052257269620895,0.9190680384635925,0.3937380611896515,-0.19140632450580597,0.30468761920928955,9.609378814697266
3359272,-0.0023803727235645056,0.016052257269620895,0.9190680384635925,0.3937380611896515,-0.19140632450580597,0.30468761920928955,9.609378814697266
3363368,-0.0023803727235645056,0.016052257269620895,0.9190680384635925,0.3937380611896515,-0.19140632450580597,0.26953133940696716,9.613285064697266
3367788,-0.0023803727235645056,0.016052257269620895,0.9190680384635925,0.3937380611896515,-0.15234380960464478,0.26953133940696716,9.609378814697266
3371984,-0.0023803727235645056,0.016052257269620895,0.9190680384635925,0.3937380611896515,-0.15234380960464478,0.26953133940696716,9.609378814697266
3376912,-0.0023803727235645056,0.016052257269620895,0.9190680384635925,0.3937380611896515,-0.15234380960464478,0.26953133940696716,9.609378814697266
3381448,-0.0023803727235645056,0.016052257269620895,0.9190680384635925,0.3937380611896515,-0.15234380960464478,0.26953133940696716,9.609378814697266
3386012,-0.0023803727235645056,0.016052257269620895,0.9190680384635925,0.3937380611896515,-0.15234380960464478,0.26953133940696716,9.609378814697266
3390332,-0.0023803727235645056,0.016052257269620895,0.9190680384635925,0.3937380611896515,-0.11328128725290298,0.26953133940696716,9.609378814697266
3395608,-0.0023803727235645056,0.016052257269620895,0.9190680384635925,0.3937380611896515,-0.11328128725290298,0.26953133940696716,9.609378814697266
3400136,-0.0023803727235645056,0.016052257269620895,0.9190680384635925,0.3937380611896515,-0.19140632450580597,0.30468761920928955,9.609378814697266
3404544,-0.0024414081126451492,0.016113292425870895,0.9190680384635925,0.3937380611896515,-0.19140632450580597,0.30468761920928955,9.609378814697266
3408028,-0.0024414081126451492,0.016113292425870895,0.9190680384635925,0.3936770260334015,-0.19140632450580597,0.30468761920928955,9.609378814697266
3412980,-0.0024414081126451492,0.016113292425870895,0.9190680384635925,0.3936770260334015,-0.15234380960464478,0.23046883940696716,9.613285064697266
3417032,-0.0024414081126451492,0.016113292425870895,0.9190680384635925,0.3936770260334015,-0.15234380960464478,0.26953133940696716,9.609378814697266
3421620,-0.0024414081126451492,0.016113292425870895,0.9190680384635925,0.3936770260334015,-0.11328128725290298,0.26953133940696716,9.609378814697266
3426172,-0.0024414081126451492,0.016113292425870895,0.9190680384635925,0.3936770260334015,-0.11328128725290298,0.30468761920928955,9.613285064697266
3430604,-0.0024414081126451492,0.016113292425870895,0.9190680384635925,0.3936770260334015,-0.19140632450580597,0.26953133940696716,9.687503814697266
3435336,-0.0024414081126451492,0.016174327582120895,0.9191290736198425,0.3936770260334015,-0.19140632450580597,0.26953133940696716,9.687503814697266
3439892,-0.0024414081126451492,0.016174327582120895,0.9190680384635925,0.3936770260334015,-0.19140632450580597,0.26953133940696716,9.687503814697266
3444456,-0.0024414081126451492,0.016174327582120895,0.9190680384635925,0.3936770260334015,-0.19140632450580597,0.30468761920928955,9.609378814697266
3448540,-0.0024414081126451492,0.016174327582120895,0.9191290736198425,0.3936770260334015,-0.19140632450580597,0.30468761920928955,9.609378814697266
3452016,-0.0024414081126451492,0.016174327582120895,0.9190680384635925,0.3936770260334015,-0.19140632450580597,0.30468761920928955,9.609378814697266
3457304,-0.0024414081126451492,0.016174327582120895,0.9190680384635925,0.3936770260334015,-0.19140632450580597,0.30468761920928955,9.609378814697266
3461372,-0.0024414081126451492,0.016174327582120895,0.9190680384635925,0.3936770260334015,-0.15234380960464478,0.23046883940696716,9.687503814697266
3465948,-0.0024414081126451492,0.016174327582120895,0.9190680384635925,0.3936770260334015,-0.15234380960464478,0.23046883940696716,9.652347564697266
3470504,-0.0024414081126451492,0.016174327582120895,0.9190680384635925,0.3936770260334015,-0.19140632450580597,0.26953133940696716,9.652347564697266
3475072,-0.0025024432688951492,0.016113292425870895,0.9190680384635925,0.3936770260334015,-0.19140632450580597,0.26953133940696716,9.652347564697266
3479796,-0.0025024432688951492,0.016113292425870895,0.9190680384635925,0.3936770260334015,-0.15234380960464478,0.26953133940696716,9.648441314697266
3484364,-0.0025024432688951492,0.016113292425870895,0.9190680384635925,0.3936770260334015,-0.15234380960464478,0.26953133940696716,9.648441314697266
3488916,-0.0025024432688951492,0.016113292425870895,0.9190680384635925,0.3936770260334015,-0.15234380960464478,0.30468761920928955,9.613285064697266
3492976,-0.0025024432688951492,0.016174327582120895,0.9190680384635925,0.3936770260334015,-0.15234380960464478,0.30468761920928955,9.613285064697266
3497548,-0.0025024432688951492,0.016113292425870895,0.9190680384635925,0.3937380611896515,-0.15234380960464478,0.30468761920928955,9.613285064697266
3502104,-0.0025024432688951492,0.016174327582120895,0.9190680384635925,0.3937380611896515,-0.15234380960464478,0.30468761920928955,9.613285064697266
3506144,-0.0025024432688951492,0.016174327582120895,0.9190680384635925,0.3937380611896515,-0.15234380960464478,0.30468761920928955,9.613285064697266
3510552,-0.0025024432688951492,0.016174327582120895,0.9190680384635925,0.3937380611896515,-0.15234380960464478,0.26953133940696716,9.609378814697266
3515108,-0.0025024432688951492,0.016174327582120895,0.9190680384635925,0.3937380611896515,-0.19140632450580597,0.23046883940696716,9.582035064697266
3519668,-0.0025024432688951492,0.016174327582120895,0.9190680384635925,0.3937380611896515,-0.15234380960464478,0.30468761920928955,9.613285064697266
3523736,-0.0025024432688951492,0.016174327582120895,0.9190680384635925,0.3937380611896515,-0.19140632450580597,0.26953133940696716,9.578128814697266
3529008,-0.0025024432688951492,0.016113292425870895,0.9190680384635925,0.3936770260334015,-0.19140632450580597,0.26953133940696716,9.578128814697266
3533096,-0.0025024432688951492,0.016113292425870895,0.9190680384635925,0.3936770260334015,-0.15234380960464478,0.34375011920928955,9.609378814697266
3537228,-0.0025024432688951492,0.016113292425870895,0.9190680384635925,0.3937380611896515,-0.15234380960464478,0.34375011920928955,9.609378814697266
3540720,-0.0025024432688951492,0.016113292425870895,0.9190680384635925,0.3937380611896515,-0.15234380960464478,0.34375011920928955,9.609378814697266
3545176,-0.0025024432688951492,0.016113292425870895,0.9190680384635925,0.3937380611896515,-0.11328128725290298,0.26953133940696716,9.648441314697266
3548652,-0.0025024432688951492,0.016113292425870895,0.9190680384635925,0.3937380611896515,-0.11328128725290298,0.26953133940696716,9.648441314697266
3553980,-0.0025024432688951492,0.016113292425870895,0.9190680384635925,0.3937380611896515,-0.11328128725290298,0.26953133940696716,9.648441314697266
3559132,-0.0025634784251451492,0.016113292425870895,0.9190680384635925,0.3937380611896515,-0.11328128725290298,0.26953133940696716,9.648441314697266
3563684,-0.0025634784251451492,0.016113292425870895,0.9190680384635925,0.3937380611896515,-0.15234380960464478,0.26953133940696716,9.609378814697266
3568268,-0.0025634784251451492,0.016113292425870895,0.9190680384635925,0.3937380611896515,-0.19140632450580597,0.30468761920928955,9.609378814697266
3573200,-0.0025634784251451492,0.016113292425870895,0.9190680384635925,0.3937380611896515,-0.19140632450580597,0.26953133940696716,9.613285064697266
3577284,-0.0025634784251451492,0.016113292425870895,0.9190680384635925,0.3937380611896515,-0.11328128725290298,0.30468761920928955,9.578128814697266
3582796,-0.0025634784251451492,0.016113292425870895,0.9190680384635925,0.3937380611896515,-0.11328128725290298,0.30468761920928955,9.578128814697266
3586848,-0.0025634784251451492,0.016113292425870895,0.9190680384635925,0.3937380611896515,-0.11328128725290298,0.30468761920928955,9.578128814697266
3591028,-0.0025634784251451492,0.016113292425870895,0.9190680384635925,0.3937380611896515,-0.11328128725290298,0.30468761920928955,9.578128814697266
3595732,-0.0025634784251451492,0.016113292425870895,0.9190680384635925,0.3937380611896515,-0.19140632450580597,0.23046883940696716,9.609378814697266
3601112,-0.0025634784251451492,0.016113292425870895,0.9190680384635925,0.3937380611896515,-0.19140632450580597,0.23046883940696716,9.609378814697266
3606032,-0.0025634784251451492,0.016113292425870895,0.9190680384635925,0.3937380611896515,-0.15234380960464478,0.26953133940696716,9.582035064697266
3610116,-0.0025634784251451492,0.016113292425870895,0.9190680384635925,0.3937380611896515,-0.15234380960464478,0.26953133940696716,9.582035064697266
3614316,-0.0025634784251451492,0.016113292425870895,0.9190680384635925,0.3937380611896515,-0.15234380960464478,0.26953133940696716,9.582035064697266
3618872,-0.0025634784251451492,0.016113292425870895,0.9190680384635925,0.3937380611896515,-0.19140632450580597,0.23046883940696716,9.609378814697266
3623796,-0.0025634784251451492,0.016113292425870895,0.9190680384635925,0.3937380611896515,-0.15234380960464478,0.26953133940696716,9.542972564697266
3627840,-0.0025634784251451492,0.016113292425870895,0.9190680384635925,0.3937380611896515,-0.15234380960464478,0.26953133940696716,9.542972564697266
3633100,-0.0025634784251451492,0.016174327582120895,0.9190680384635925,0.3937380611896515,-0.15234380960464478,0.26953133940696716,9.542972564697266
3637776,-0.0025634784251451492,0.016174327582120895,0.9190680384635925,0.3937380611896515,-0.15234380960464478,0.26953133940696716,9.542972564697266
3642392,-0.0025634784251451492,0.016174327582120895,0.9190680384635925,0.3937380611896515,-0.19140632450580597,0.23046883940696716,9.648441314697266
3646440,-0.0025634784251451492,0.016174327582120895,0.9190680384635925,0.3937380611896515,-0.19140632450580597,0.23046883940696716,9.648441314697266
3650996,-0.0025634784251451492,0.016174327582120895,0.9190680384635925,0.3937380611896515,-0.19140632450580597,0.23046883940696716,9.648441314697266
3655564,-0.0025634784251451492,0.016174327582120895,0.9190680384635925,0.3937380611896515,-0.19140632450580597,0.23046883940696716,9.648441314697266
3660176,-0.0025634784251451492,0.016174327582120895,0.9190680384635925,0.3937380611896515,-0.15234380960464478,0.34375011920928955,9.582035064697266
3665096,-0.0025634784251451492,0.016174327582120895,0.9190680384635925,0.3937380611896515,-0.19140632450580597,0.30468761920928955,9.609378814697266
3669652,-0.0026245135813951492,0.016174327582120895,0.9190680384635925,0.3937380611896515,-0.19140632450580597,0.30468761920928955,9.609378814697266
3674060,-0.0026245135813951492,0.016174327582120895,0.9190680384635925,0.3937380611896515,-0.15234380960464478,0.26953133940696716,9.609378814697266
3678624,-0.0026245135813951492,0.016174327582120895,0.9190680384635925,0.3937380611896515,-0.15234380960464478,0.26953133940696716,9.609378814697266
3683192,-0.0026245135813951492,0.016174327582120895,0.9190680384635925,0.3937380611896515,-0.15234380960464478,0.26953133940696716,9.609378814697266
3687764,-0.0026245135813951492,0.016174327582120895,0.9190680384635925,0.3937380611896515,-0.15234380960464478,0.26953133940696716,9.609378814697266
3691812,-0.0026245135813951492,0.016174327582120895,0.9190680384635925,0.3937380611896515,-0.15234380960464478,0.26953133940696716,9.609378814697266
3697076,-0.0026245135813951492,0.016174327582120895,0.9190680384635925,0.3937380611896515,-0.15234380960464478,0.26953133940696716,9.609378814697266
3702020,-0.0026245135813951492,0.016174327582120895,0.9190680384635925,0.3937380611896515,-0.19140632450580597,0.23046883940696716,9.609378814697266
3706612,-0.0026245135813951492,0.016174327582120895,0.9190680384635925,0.3937380611896515,-0.19140632450580597,0.23046883940696716,9.609378814697266
3711536,-0.0026245135813951492,0.016174327582120895,0.9190680384635925,0.3937380611896515,-0.11328128725290298,0.26953133940696716,9.648441314697266
3715948,-0.0026245135813951492,0.016174327582120895,0.9190680384635925,0.3937380611896515,-0.11328128725290298,0.26953133940696716,9.648441314697266
3720952,-0.0026245135813951492,0.016174327582120895,0.9190680384635925,0.3937380611896515,-0.11328128725290298,0.26953133940696716,9.648441314697266
3725576,-0.0026245135813951492,0.016174327582120895,0.9190680384635925,0.3937380611896515,-0.11328128725290298,0.26953133940696716,9.648441314697266
3730140,-0.0026245135813951492,0.016174327582120895,0.9190680384635925,0.3937380611896515,-0.11328128725290298,0.26953133940696716,9.648441314697266
3735084,-0.0026245135813951492,0.016174327582120895,0.9190680384635925,0.3937380611896515,-0.11328128725290298,0.26953133940696716,9.648441314697266
3739676,-0.0026245135813951492,0.016174327582120895,0.9190680384635925,0.3937380611896515,-0.11328128725290298,0.26953133940696716,9.648441314697266
3744260,-0.0026245135813951492,0.016174327582120895,0.9190680384635925,0.3937380611896515,-0.11328128725290298,0.26953133940696716,9.648441314697266
3748944,-0.0026245135813951492,0.016174327582120895,0.9190680384635925,0.3937380611896515,-0.11328128725290298,0.26953133940696716,9.648441314697266
3753044,-0.0026245135813951492,0.016174327582120895,0.9190680384635925,0.3937380611896515,-0.11328128725290298,0.26953133940696716,9.648441314697266
3756540,-0.0026245135813951492,0.016174327582120895,0.9190680384635925,0.3937380611896515,-0.11328128725290298,0.26953133940696716,9.648441314697266
3760800,-0.0026245135813951492,0.016174327582120895,0.9190680384635925,0.3937380611896515,-0.15234380960464478,0.30468761920928955,9.726566314697266
3764840,-0.0026245135813951492,0.016174327582120895,0.9190680384635925,0.3937380611896515,-0.23046883940696716,0.34375011920928955,9.652347564697266
3769420,-0.0026245135813951492,0.016174327582120895,0.9190680384635925,0.3937380611896515,-0.23046883940696716,0.38281264901161194,9.578128814697266
3774336,-0.0026245135813951492,0.016174327582120895,0.9190680384635925,0.3937380611896515,-0.19140632450580597,0.26953133940696716,9.425785064697266
3778888,-0.0026855487376451492,0.016052257269620895,0.9190680384635925,0.3937380611896515,-0.19140632450580597,0.26953133940696716,9.425785064697266
3783584,-0.0027465838938951492,0.016052257269620895,0.9190680384635925,0.3936770260334015,-0.19140632450580597,0.26953133940696716,9.425785064697266
3787680,-0.0027465838938951492,0.016052257269620895,0.9190680384635925,0.3937380611896515,-0.19140632450580597,0.26953133940696716,9.425785064697266
3791892,-0.0027465838938951492,0.016052257269620895,0.9190680384635925,0.3936770260334015,-0.19140632450580597,0.26953133940696716,9.425785064697266
3796804,-0.0027465838938951492,0.016052257269620895,0.9190680384635925,0.3936770260334015,-0.19140632450580597,0.26953133940696716,9.539066314697266
3801220,-0.0027465838938951492,0.016052257269620895,0.9190680384635925,0.3936770260334015,-0.26953133940696716,0.30468761920928955,9.460941314697266
3805964,-0.0027465838938951492,0.015991222113370895,0.9190680384635925,0.3937380611896515,-0.26953133940696716,0.30468761920928955,9.460941314697266
3810876,-0.0027465838938951492,0.015991222113370895,0.9190680384635925,0.3937380611896515,-0.19140632450580597,0.23046883940696716,9.464847564697266
3815816,-0.0027465838938951492,0.015991222113370895,0.9190680384635925,0.3937380611896515,-0.19140632450580597,0.23046883940696716,9.464847564697266
3820400,-0.0027465838938951492,0.015991222113370895,0.9190680384635925,0.3937380611896515,-0.19140632450580597,0.23046883940696716,9.609378814697266
3824460,-0.0027465838938951492,0.015991222113370895,0.9190680384635925,0.3937380611896515,-0.19140632450580597,0.26953133940696716,9.726566314697266
3829028,-0.0027465838938951492,0.016052257269620895,0.9190680384635925,0.3937380611896515,-0.19140632450580597,0.26953133940696716,9.726566314697266
3833072,-0.0027465838938951492,0.016113292425870895,0.9190680384635925,0.3937380611896515,-0.19140632450580597,0.26953133940696716,9.726566314697266
3838376,-0.0027465838938951492,0.016052257269620895,0.9190680384635925,0.3937380611896515,-0.19140632450580597,0.26953133940696716,9.726566314697266
3842424,-0.0027465838938951492,0.016052257269620895,0.9190680384635925,0.3937380611896515,-0.19140632450580597,0.26953133940696716,9.726566314697266
3846668,-0.0027465838938951492,0.016052257269620895,0.9190680384635925,0.3937380611896515,-0.19140632450580597,0.26953133940696716,9.726566314697266
3851228,-0.0027465838938951492,0.016052257269620895,0.9190680384635925,0.3937380611896515,-0.19140632450580597,0.26953133940696716,9.726566314697266
3855784,-0.0027465838938951492,0.016052257269620895,0.9190680384635925,0.3937380611896515,-0.15234380960464478,0.30468761920928955,9.613285064697266
3861284,-0.0027465838938951492,0.016052257269620895,0.9190680384635925,0.3937380611896515,-0.11328128725290298,0.23046883940696716,9.613285064697266
3865844,-0.0027465838938951492,0.016052257269620895,0.9190680384635925,0.3937380611896515,-0.15234380960464478,0.30468761920928955,9.687503814697266
3870392,-0.0026855487376451492,0.016174327582120895,0.9190680384635925,0.3937380611896515,-0.15234380960464478,0.30468761920928955,9.687503814697266
3874952,-0.0026855487376451492,0.016113292425870895,0.9190680384635925,0.3937380611896515,-0.15234380960464478,0.30468761920928955,9.687503814697266
3879040,-0.0026855487376451492,0.016113292425870895,0.9190680384635925,0.3937380611896515,-0.15234380960464478,0.30468761920928955,9.652347564697266
3884364,-0.0026855487376451492,0.016113292425870895,0.9190680384635925,0.3937380611896515,-0.11328128725290298,0.30468761920928955,9.613285064697266
3888412,-0.0026855487376451492,0.016113292425870895,0.9190680384635925,0.3937380611896515,-0.15234380960464478,0.30468761920928955,9.652347564697266
3893336,-0.0026855487376451492,0.016113292425870895,0.9190680384635925,0.3937380611896515,-0.15234380960464478,0.30468761920928955,9.652347564697266
3897892,-0.0026855487376451492,0.016174327582120895,0.9190680384635925,0.3937380611896515,-0.15234380960464478,0.30468761920928955,9.652347564697266
3902456,-0.0026855487376451492,0.016174327582120895,0.9190680384635925,0.3937380611896515,-0.15234380960464478,0.30468761920928955,9.652347564697266
3907212,-0.0026855487376451492,0.016174327582120895,0.9190680384635925,0.3937380611896515,-0.19140632450580597,0.19140632450580597,9.542972564697266
3911800,-0.0026855487376451492,0.016113292425870895,0.9190680384635925,0.3937380611896515,-0.19140632450580597,0.19140632450580597,9.542972564697266
3916760,-0.0026855487376451492,0.016113292425870895,0.9190680384635925,0.3937380611896515,-0.23046883940696716,0.19140632450580597,9.542972564697266
3921168,-0.0026855487376451492,0.016113292425870895,0.9190680384635925,0.3937380611896515,-0.23046883940696716,0.19140632450580597,9.542972564697266
3925364,-0.0026855487376451492,0.016113292425870895,0.9190680384635925,0.3937380611896515,-0.23046883940696716,0.19140632450580597,9.542972564697266
3929924,-0.0026855487376451492,0.016113292425870895,0.9190680384635925,0.3937380611896515,-0.23046883940696716,0.19140632450580597,9.542972564697266
3934152,-0.0026855487376451492,0.016113292425870895,0.9190680384635925,0.3937380611896515,-0.19140632450580597,0.23046883940696716,9.609378814697266
3939632,-0.0026855487376451492,0.016113292425870895,0.9190680384635925,0.3937380611896515,-0.19140632450580597,0.23046883940696716,9.609378814697266
3944180,-0.0026855487376451492,0.016113292425870895,0.9190680384635925,0.3937380611896515,-0.19140632450580597,0.23046883940696716,9.609378814697266
3948776,-0.0026245135813951492,0.016174327582120895,0.9190680384635925,0.3937380611896515,-0.19140632450580597,0.23046883940696716,9.609378814697266
3953392,-0.0026855487376451492,0.016174327582120895,0.9190680384635925,0.3937380611896515,-0.19140632450580597,0.23046883940696716,9.609378814697266
3957952,-0.0026245135813951492,0.016174327582120895,0.9190680384635925,0.3937380611896515,-0.19140632450580597,0.23046883940696716,9.609378814697266
3961436,-0.0026245135813951492,0.016174327582120895,0.9190680384635925,0.3937380611896515,-0.19140632450580597,0.23046883940696716,9.609378814697266
3966948,-0.0026245135813951492,0.016174327582120895,0.9190680384635925,0.3937380611896515,-0.15234380960464478,0.26953133940696716,9.648441314697266
3971500,-0.0026245135813951492,0.016174327582120895,0.9190680384635925,0.3937380611896515,-0.15234380960464478,0.30468761920928955,9.652347564697266
3977324,-0.0026245135813951492,0.016174327582120895,0.9190680384635925,0.3937380611896515,-0.15234380960464478,0.30468761920928955,9.613285064697266
3981892,-0.0026245135813951492,0.016174327582120895,0.9190680384635925,0.3937380611896515,-0.15234380960464478,0.26953133940696716,9.582035064697266
3986468,-0.0026245135813951492,0.016174327582120895,0.9190680384635925,0.3937380611896515,-0.11328128725290298,0.26953133940696716,9.582035064697266
3991440,-0.0026245135813951492,0.016174327582120895,0.9190680384635925,0.3937380611896515,-0.15234380960464478,0.26953133940696716,9.542972564697266
3996008,-0.0026245135813951492,0.016174327582120895,0.9190680384635925,0.3937380611896515,-0.15234380960464478,0.26953133940696716,9.648441314697266
4000612,-0.0026245135813951492,0.016235362738370895,0.9190680384635925,0.3937380611896515,-0.15234380960464478,0.26953133940696716,9.648441314697266
4004800,-0.0026245135813951492,0.016235362738370895,0.9190680384635925,0.3937380611896515,-0.15234380960464478,0.26953133940696716,9.648441314697266
4009348,-0.0026245135813951492,0.016235362738370895,0.9190680384635925,0.3937380611896515,-0.15234380960464478,0.34375011920928955,9.691410064697266
4013392,-0.0026245135813951492,0.016235362738370895,0.9190680384635925,0.3937380611896515,-0.11328128725290298,0.23046883940696716,9.652347564697266
4018716,-0.0026245135813951492,0.016235362738370895,0.9190680384635925,0.3937380611896515,-0.19140632450580597,0.19140632450580597,9.648441314697266
4023344,-0.0026245135813951492,0.016235362738370895,0.9190680384635925,0.3937380611896515,-0.15234380960464478,0.26953133940696716,9.648441314697266
4028252,-0.0026855487376451492,0.016235362738370895,0.9190680384635925,0.3936770260334015,-0.15234380960464478,0.26953133940696716,9.648441314697266
4032848,-0.0026855487376451492,0.016235362738370895,0.9190680384635925,0.3936770260334015,-0.23046883940696716,0.26953133940696716,9.578128814697266
4037624,-0.0026855487376451492,0.016235362738370895,0.9190680384635925,0.3936770260334015,-0.15234380960464478,0.23046883940696716,9.613285064697266
4042232,-0.0026855487376451492,0.016174327582120895,0.9191290736198425,0.3936770260334015,-0.15234380960464478,0.23046883940696716,9.613285064697266
4046384,-0.0026855487376451492,0.016174327582120895,0.9191290736198425,0.3936770260334015,-0.15234380960464478,0.23046883940696716,9.613285064697266
4050964,-0.0026855487376451492,0.016174327582120895,0.9191290736198425,0.3936770260334015,-0.15234380960464478,0.23046883940696716,9.613285064697266
4055528,-0.0026855487376451492,0.016174327582120895,0.9191290736198425,0.3936770260334015,-0.15234380960464478,0.23046883940696716,9.613285064697266
4060668,-0.0026855487376451492,0.016174327582120895,0.9191290736198425,0.3936770260334015,-0.19140632450580597,0.26953133940696716,9.539066314697266
4064160,-0.0026855487376451492,0.016174327582120895,0.9191290736198425,0.3936770260334015,-0.19140632450580597,0.26953133940696716,9.539066314697266
4068720,-0.0026855487376451492,0.016174327582120895,0.9191290736198425,0.3936770260334015,-0.19140632450580597,0.23046883940696716,9.609378814697266
4073312,-0.0026855487376451492,0.016235362738370895,0.9191290736198425,0.3936770260334015,-0.19140632450580597,0.23046883940696716,9.609378814697266
4078220,-0.0026855487376451492,0.016235362738370895,0.9191290736198425,0.3936770260334015,-0.15234380960464478,0.30468761920928955,9.652347564697266
4082316,-0.0026855487376451492,0.016235362738370895,0.9191290736198425,0.3936770260334015,-0.15234380960464478,0.30468761920928955,9.652347564697266
4087600,-0.0026245135813951492,0.016235362738370895,0.9191290736198425,0.3936770260334015,-0.15234380960464478,0.30468761920928955,9.652347564697266
4092000,-0.0026245135813951492,0.016235362738370895,0.9191290736198425,0.3936770260334015,-0.15234380960464478,0.23046883940696716,9.652347564697266
4097292,-0.0026855487376451492,0.016235362738370895,0.9191290736198425,0.3936770260334015,-0.15234380960464478,0.23046883940696716,9.652347564697266
4101380,-0.0026855487376451492,0.016235362738370895,0.9191290736198425,0.3936770260334015,-0.11328128725290298,0.30468761920928955,9.613285064697266
4106408,-0.0026855487376451492,0.016235362738370895,0.9191290736198425,0.3936770260334015,-0.11328128725290298,0.30468761920928955,9.613285064697266
4111060,-0.0026855487376451492,0.016235362738370895,0.9191290736198425,0.3936770260334015,-0.11328128725290298,0.30468761920928955,9.613285064697266
4115616,-0.0026855487376451492,0.016174327582120895,0.9191290736198425,0.3936770260334015,-0.11328128725290298,0.30468761920928955,9.613285064697266
4119660,-0.0026855487376451492,0.016174327582120895,0.9191290736198425,0.3936770260334015,-0.11328128725290298,0.30468761920928955,9.613285064697266
4124368,-0.0026855487376451492,0.016174327582120895,0.9191290736198425,0.3936770260334015,-0.11328128725290298,0.30468761920928955,9.613285064697266
4128428,-0.0026855487376451492,0.016174327582120895,0.9191290736198425,0.3936770260334015,-0.15234380960464478,0.26953133940696716,9.609378814697266
4133724,-0.0026855487376451492,0.016174327582120895,0.9191290736198425,0.3936770260334015,-0.19140632450580597,0.26953133940696716,9.652347564697266
4137768,-0.0026855487376451492,0.016174327582120895,0.9191290736198425,0.3936770260334015,-0.15234380960464478,0.26953133940696716,9.691410064697266
4142172,-0.0026855487376451492,0.016174327582120895,0.9191290736198425,0.3936770260334015,-0.15234380960464478,0.23046883940696716,9.687503814697266
4146400,-0.0026855487376451492,0.016235362738370895,0.9191290736198425,0.3936770260334015,-0.15234380960464478,0.23046883940696716,9.687503814697266
4151672,-0.0026855487376451492,0.016235362738370895,0.9191290736198425,0.3936770260334015,-0.15234380960464478,0.23046883940696716,9.687503814697266
4156644,-0.0026855487376451492,0.016235362738370895,0.9191290736198425,0.3936770260334015,-0.19140632450580597,0.23046883940696716,9.582035064697266
4160876,-0.0026855487376451492,0.016174327582120895,0.9191290736198425,0.3936770260334015,-0.19140632450580597,0.23046883940696716,9.582035064697266
4164948,-0.0026855487376451492,0.016174327582120895,0.9191290736198425,0.3936770260334015,-0.15234380960464478,0.26953133940696716,9.582035064697266
4169860,-0.0026855487376451492,0.016174327582120895,0.9191290736198425,0.3936159908771515,-0.15234380960464478,0.26953133940696716,9.582035064697266
4174412,-0.0027465838938951492,0.016174327582120895,0.9191290736198425,0.3936159908771515,-0.15234380960464478,0.26953133940696716,9.582035064697266
4178972,-0.0027465838938951492,0.016174327582120895,0.9191290736198425,0.3936159908771515,-0.15234380960464478,0.26953133940696716,9.582035064697266
4183060,-0.0027465838938951492,0.016174327582120895,0.9191290736198425,0.3936159908771515,-0.15234380960464478,0.26953133940696716,9.582035064697266
4187960,-0.0027465838938951492,0.016174327582120895,0.9191290736198425,0.3936159908771515,-0.15234380960464478,0.26953133940696716,9.582035064697266
4192540,-0.0027465838938951492,0.016174327582120895,0.9191290736198425,0.3936159908771515,-0.19140632450580597,0.26953133940696716,9.652347564697266
4197120,-0.0026855487376451492,0.016235362738370895,0.9191290736198425,0.3936159908771515,-0.19140632450580597,0.26953133940696716,9.652347564697266
4201684,-0.0026855487376451492,0.016235362738370895,0.9191290736198425,0.3936159908771515,-0.19140632450580597,0.26953133940696716,9.652347564697266
4206248,-0.0026855487376451492,0.016235362738370895,0.9191290736198425,0.3936159908771515,-0.19140632450580597,0.26953133940696716,9.652347564697266
4210808,-0.0026855487376451492,0.016235362738370895,0.9191290736198425,0.3936159908771515,-0.15234380960464478,0.30468761920928955,9.613285064697266
4215220,-0.0027465838938951492,0.016235362738370895,0.9191290736198425,0.3936159908771515,-0.15234380960464478,0.30468761920928955,9.613285064697266
4218716,-0.0027465838938951492,0.016235362738370895,0.9191290736198425,0.3936159908771515,-0.15234380960464478,0.30468761920928955,9.613285064697266
4223336,-0.0027465838938951492,0.016235362738370895,0.9191290736198425,0.3936159908771515,-0.19140632450580597,0.26953133940696716,9.613285064697266
4227396,-0.0027465838938951492,0.016235362738370895,0.9191290736198425,0.3936159908771515,-0.19140632450580597,0.26953133940696716,9.613285064697266
4232008,-0.0027465838938951492,0.016235362738370895,0.9191290736198425,0.3936159908771515,-0.15234380960464478,0.26953133940696716,9.609378814697266
4236556,-0.0027465838938951492,0.016235362738370895,0.9191290736198425,0.3936159908771515,-0.19140632450580597,0.23046883940696716,9.582035064697266
4240980,-0.0027465838938951492,0.016235362738370895,0.9191290736198425,0.3936159908771515,-0.15234380960464478,0.30468761920928955,9.578128814697266
4245724,-0.0027465838938951492,0.016174327582120895,0.9191290736198425,0.3936770260334015,-0.15234380960464478,0.30468761920928955,9.578128814697266
4250280,-0.0026855487376451492,0.016174327582120895,0.9191290736198425,0.3936159908771515,-0.15234380960464478,0.30468761920928955,9.578128814697266
4254840,-0.0026855487376451492,0.016174327582120895,0.9191290736198425,0.3936159908771515,-0.19140632450580597,0.26953133940696716,9.539066314697266
4258924,-0.0026855487376451492,0.016174327582120895,0.9191290736198425,0.3936159908771515,-0.19140632450580597,0.26953133940696716,9.652347564697266
4262396,-0.0027465838938951492,0.016174327582120895,0.9191290736198425,0.3936770260334015,-0.19140632450580597,0.26953133940696716,9.652347564697266
4267332,-0.0027465838938951492,0.016174327582120895,0.9191290736198425,0.3936770260334015,-0.19140632450580597,0.30468761920928955,9.648441314697266
4271388,-0.0027465838938951492,0.016174327582120895,0.9191290736198425,0.3936770260334015,-0.19140632450580597,0.23046883940696716,9.609378814697266
4276344,-0.0027465838938951492,0.016235362738370895,0.9191290736198425,0.3936159908771515,-0.19140632450580597,0.23046883940696716,9.609378814697266
4280532,-0.0027465838938951492,0.016174327582120895,0.9191290736198425,0.3936159908771515,-0.19140632450580597,0.23046883940696716,9.609378814697266
4285132,-0.0027465838938951492,0.016174327582120895,0.9191290736198425,0.3936159908771515,-0.19140632450580597,0.23046883940696716,9.609378814697266
4289688,-0.0027465838938951492,0.016174327582120895,0.9191290736198425,0.3936159908771515,-0.15234380960464478,0.26953133940696716,9.609378814697266
4294604,-0.0027465838938951492,0.016113292425870895,0.9191290736198425,0.3936770260334015,-0.15234380960464478,0.26953133940696716,9.609378814697266
4298652,-0.0027465838938951492,0.016113292425870895,0.9191290736198425,0.3936770260334015,-0.15234380960464478,0.26953133940696716,9.582035064697266
4302844,-0.0027465838938951492,0.016113292425870895,0.9191290736198425,0.3936770260334015,-0.15234380960464478,0.26953133940696716,9.582035064697266
4307176,-0.0027465838938951492,0.016113292425870895,0.9191290736198425,0.3936770260334015,-0.19140632450580597,0.26953133940696716,9.613285064697266
4311948,-0.0027465838938951492,0.016113292425870895,0.9191290736198425,0.3936770260334015,-0.19140632450580597,0.26953133940696716,9.652347564697266
4316500,-0.0027465838938951492,0.016113292425870895,0.9191290736198425,0.3936770260334015,-0.19140632450580597,0.26953133940696716,9.652347564697266
4320696,-0.0027465838938951492,0.016113292425870895,0.9191290736198425,0.3936770260334015,-0.19140632450580597,0.26953133940696716,9.652347564697266
4324744,-0.0027465838938951492,0.016113292425870895,0.9191290736198425,0.3936770260334015,-0.11328128725290298,0.30468761920928955,9.578128814697266
4329300,-0.0027465838938951492,0.016113292425870895,0.9191290736198425,0.3936770260334015,-0.11328128725290298,0.30468761920928955,9.578128814697266
4333700,-0.0027465838938951492,0.016113292425870895,0.9191290736198425,0.3936770260334015,-0.11328128725290298,0.23046883940696716,9.652347564697266
4337896,-0.0027465838938951492,0.016113292425870895,0.9191290736198425,0.3936770260334015,-0.11328128725290298,0.23046883940696716,9.652347564697266
4342436,-0.0027465838938951492,0.016113292425870895,0.9191290736198425,0.3936770260334015,-0.11328128725290298,0.23046883940696716,9.652347564697266
4347000,-0.0027465838938951492,0.016113292425870895,0.9191290736198425,0.3936770260334015,-0.11328128725290298,0.23046883940696716,9.652347564697266
4351088,-0.0027465838938951492,0.016113292425870895,0.9191290736198425,0.3936770260334015,-0.23046883940696716,0.30468761920928955,9.609378814697266
4356736,-0.0027465838938951492,0.016113292425870895,0.9191290736198425,0.3936770260334015,-0.23046883940696716,0.30468761920928955,9.609378814697266
4360284,-0.0026855487376451492,0.016113292425870895,0.9191290736198425,0.3936770260334015,-0.23046883940696716,0.30468761920928955,9.609378814697266
4364856,-0.0026855487376451492,0.016113292425870895,0.9191290736198425,0.3936770260334015,-0.23046883940696716,0.26953133940696716,9.613285064697266
4369772,-0.0026855487376451492,0.016113292425870895,0.9191290736198425,0.3936770260334015,-0.19140632450580597,0.26953133940696716,9.613285064697266
4374332,-0.0026855487376451492,0.016113292425870895,0.9191290736198425,0.3936159908771515,-0.19140632450580597,0.26953133940696716,9.613285064697266
4379112,-0.0026855487376451492,0.016113292425870895,0.9191290736198425,0.3936159908771515,-0.19140632450580597,0.23046883940696716,9.609378814697266
4383668,-0.0027465838938951492,0.016113292425870895,0.9191290736198425,0.3936159908771515,-0.19140632450580597,0.23046883940696716,9.609378814697266
4387720,-0.0027465838938951492,0.016113292425870895,0.9191290736198425,0.3936159908771515,-0.19140632450580597,0.23046883940696716,9.609378814697266
4392316,-0.0027465838938951492,0.016113292425870895,0.9191290736198425,0.3936159908771515,-0.19140632450580597,0.23046883940696716,9.609378814697266
4395792,-0.0027465838938951492,0.016113292425870895,0.9191290736198425,0.3936159908771515,-0.19140632450580597,0.23046883940696716,9.609378814697266
4400704,-0.0027465838938951492,0.016113292425870895,0.9191290736198425,0.3936159908771515,-0.23046883940696716,0.23046883940696716,9.648441314697266
4404772,-0.0027465838938951492,0.016113292425870895,0.9191290736198425,0.3936159908771515,-0.23046883940696716,0.26953133940696716,9.578128814697266
4409332,-0.0027465838938951492,0.016113292425870895,0.9191290736198425,0.3936159908771515,-0.23046883940696716,0.26953133940696716,9.578128814697266
4413896,-0.0027465838938951492,0.016113292425870895,0.9191290736198425,0.3936159908771515,-0.23046883940696716,0.26953133940696716,9.578128814697266
4418148,-0.0027465838938951492,0.016113292425870895,0.9191290736198425,0.3936159908771515,-0.23046883940696716,0.26953133940696716,9.578128814697266
4422208,-0.0027465838938951492,0.016113292425870895,0.9191290736198425,0.3936159908771515,-0.23046883940696716,0.26953133940696716,9.578128814697266
4426764,-0.0027465838938951492,0.016113292425870895,0.9191290736198425,0.3936159908771515,-0.23046883940696716,0.26953133940696716,9.539066314697266
4431304,-0.0026855487376451492,0.016113292425870895,0.9191290736198425,0.3936159908771515,-0.23046883940696716,0.26953133940696716,9.539066314697266
4435860,-0.0026855487376451492,0.016113292425870895,0.9191290736198425,0.3936159908771515,-0.15234380960464478,0.23046883940696716,9.613285064697266
4439904,-0.0026855487376451492,0.016113292425870895,0.9191290736198425,0.3936159908771515,-0.15234380960464478,0.26953133940696716,9.582035064697266
4445584,-0.0026855487376451492,0.016113292425870895,0.9191290736198425,0.3936159908771515,-0.15234380960464478,0.26953133940696716,9.582035064697266
4450144,-0.0026855487376451492,0.016113292425870895,0.9191290736198425,0.3936159908771515,-0.19140632450580597,0.26953133940696716,9.613285064697266
4454196,-0.0026855487376451492,0.016113292425870895,0.9191290736198425,0.3936159908771515,-0.19140632450580597,0.26953133940696716,9.613285064697266
4457660,-0.0026855487376451492,0.016113292425870895,0.9191290736198425,0.3936159908771515,-0.19140632450580597,0.26953133940696716,9.613285064697266
4462936,-0.0026855487376451492,0.016052257269620895,0.9191290736198425,0.3936159908771515,-0.19140632450580597,0.26953133940696716,9.613285064697266
4467120,-0.0026855487376451492,0.016052257269620895,0.9191290736198425,0.3936159908771515,-0.15234380960464478,0.26953133940696716,9.609378814697266
4472848,-0.0026855487376451492,0.016052257269620895,0.9191290736198425,0.3936159908771515,-0.15234380960464478,0.26953133940696716,9.609378814697266
4477052,-0.0026855487376451492,0.016052257269620895,0.9191290736198425,0.3936159908771515,-0.23046883940696716,0.26953133940696716,9.613285064697266
4481620,-0.0026855487376451492,0.015991222113370895,0.9191290736198425,0.3936159908771515,-0.23046883940696716,0.26953133940696716,9.613285064697266
4485096,-0.0026855487376451492,0.015991222113370895,0.9191290736198425,0.3936159908771515,-0.23046883940696716,0.26953133940696716,9.613285064697266
4490100,-0.0026855487376451492,0.015991222113370895,0.9191290736198425,0.3936159908771515,-0.19140632450580597,0.26953133940696716,9.613285064697266
4494236,-0.0026855487376451492,0.015991222113370895,0.9191290736198425,0.3936159908771515,-0.15234380960464478,0.30468761920928955,9.578128814697266
4498668,-0.0026855487376451492,0.015991222113370895,0.9191290736198425,0.3936159908771515,-0.15234380960464478,0.26953133940696716,9.648441314697266
4503216,-0.0026855487376451492,0.015991222113370895,0.9191290736198425,0.3935549557209015,-0.15234380960464478,0.26953133940696716,9.648441314697266
4507764,-0.0026245135813951492,0.016052257269620895,0.9191290736198425,0.3936159908771515,-0.15234380960464478,0.26953133940696716,9.648441314697266
4512868,-0.0026245135813951492,0.016052257269620895,0.9191290736198425,0.3936159908771515,-0.19140632450580597,0.26953133940696716,9.652347564697266
4517064,-0.0026245135813951492,0.016052257269620895,0.9191290736198425,0.3936159908771515,-0.19140632450580597,0.26953133940696716,9.652347564697266
4521124,-0.0026245135813951492,0.016052257269620895,0.9191290736198425,0.3936159908771515,-0.15234380960464478,0.26953133940696716,9.609378814697266
4525704,-0.0026245135813951492,0.016052257269620895,0.9191290736198425,0.3936159908771515,-0.15234380960464478,0.23046883940696716,9.652347564697266
4529740,-0.0026245135813951492,0.016052257269620895,0.9191290736198425,0.3936159908771515,-0.19140632450580597,0.26953133940696716,9.578128814697266
4534688,-0.0026245135813951492,0.016052257269620895,0.9191290736198425,0.3936159908771515,-0.23046883940696716,0.23046883940696716,9.609378814697266
4539236,-0.0026245135813951492,0.016052257269620895,0.9191290736198425,0.3936159908771515,-0.19140632450580597,0.26953133940696716,9.613285064697266
4543800,-0.0026245135813951492,0.015991222113370895,0.9191290736198425,0.3936159908771515,-0.19140632450580597,0.26953133940696716,9.613285064697266
4547864,-0.0026245135813951492,0.015991222113370895,0.9191290736198425,0.3936159908771515,-0.19140632450580597,0.26953133940696716,9.613285064697266
4552428,-0.0026245135813951492,0.015991222113370895,0.9191290736198425,0.3936159908771515,-0.19140632450580597,0.26953133940696716,9.613285064697266
4555944,-0.0026245135813951492,0.015991222113370895,0.9191290736198425,0.3936159908771515,-0.19140632450580597,0.26953133940696716,9.613285064697266
4560492,-0.0026245135813951492,0.015991222113370895,0.9191290736198425,0.3936159908771515,-0.19140632450580597,0.26953133940696716,9.613285064697266
4564536,-0.0026245135813951492,0.015991222113370895,0.9191290736198425,0.3936159908771515,-0.19140632450580597,0.26953133940696716,9.613285064697266
4569976,-0.0026245135813951492,0.015991222113370895,0.9191290736198425,0.3936159908771515,-0.19140632450580597,0.26953133940696716,9.613285064697266
4574388,-0.0026245135813951492,0.015991222113370895,0.9191290736198425,0.3936159908771515,-0.15234380960464478,0.30468761920928955,9.652347564697266
4578720,-0.0026245135813951492,0.015991222113370895,0.9191290736198425,0.3936159908771515,-0.15234380960464478,0.30468761920928955,9.652347564697266
4582772,-0.0026245135813951492,0.015991222113370895,0.9191290736198425,0.3936159908771515,-0.19140632450580597,0.30468761920928955,9.648441314697266
4587340,-0.0026245135813951492,0.015991222113370895,0.9191290736198425,0.3936159908771515,-0.23046883940696716,0.26953133940696716,9.613285064697266
4591924,-0.0026855487376451492,0.015991222113370895,0.9191290736198425,0.3936159908771515,-0.23046883940696716,0.26953133940696716,9.613285064697266
4596472,-0.0026855487376451492,0.015991222113370895,0.9191290736198425,0.3936159908771515,-0.19140632450580597,0.23046883940696716,9.542972564697266
4601060,-0.0026855487376451492,0.015991222113370895,0.9191290736198425,0.3936159908771515,-0.19140632450580597,0.26953133940696716,9.578128814697266
4605604,-0.0026855487376451492,0.015930186957120895,0.9191290736198425,0.3936159908771515,-0.19140632450580597,0.26953133940696716,9.578128814697266
4609652,-0.0026855487376451492,0.015930186957120895,0.9191290736198425,0.3936159908771515,-0.19140632450580597,0.26953133940696716,9.578128814697266
4613852,-0.0026855487376451492,0.015930186957120895,0.9191290736198425,0.3936159908771515,-0.19140632450580597,0.26953133940696716,9.578128814697266
4619036,-0.0026855487376451492,0.015930186957120895,0.9191290736198425,0.3936159908771515,-0.15234380960464478,0.19140632450580597,9.652347564697266
4623592,-0.0026245135813951492,0.015991222113370895,0.9191290736198425,0.3936159908771515,-0.15234380960464478,0.19140632450580597,9.652347564697266
4628236,-0.0026245135813951492,0.015991222113370895,0.9191290736198425,0.3936159908771515,-0.23046883940696716,0.23046883940696716,9.691410064697266
4633156,-0.0026245135813951492,0.016052257269620895,0.9191290736198425,0.3936159908771515,-0.23046883940696716,0.23046883940696716,9.691410064697266
4636640,-0.0026245135813951492,0.016052257269620895,0.9191290736198425,0.3936159908771515,-0.23046883940696716,0.23046883940696716,9.691410064697266
4641180,-0.0026245135813951492,0.016052257269620895,0.9191290736198425,0.3936159908771515,-0.19140632450580597,0.26953133940696716,9.652347564697266
4645440,-0.0026245135813951492,0.016052257269620895,0.9191290736198425,0.3936159908771515,-0.19140632450580597,0.26953133940696716,9.652347564697266
4651088,-0.0026245135813951492,0.016052257269620895,0.9191290736198425,0.3936159908771515,-0.19140632450580597,0.26953133940696716,9.652347564697266
4654576,-0.0026245135813951492,0.016052257269620895,0.9191290736198425,0.3936159908771515,-0.19140632450580597,0.26953133940696716,9.613285064697266
4658804,-0.0026855487376451492,0.015991222113370895,0.9191290736198425,0.3936159908771515,-0.19140632450580597,0.26953133940696716,9.613285064697266
4663368,-0.0026855487376451492,0.015991222113370895,0.9191290736198425,0.3936159908771515,-0.19140632450580597,0.30468761920928955,9.542972564697266
4668404,-0.0026855487376451492,0.015991222113370895,0.9191290736198425,0.3936159908771515,-0.15234380960464478,0.23046883940696716,9.539066314697266
4672600,-0.0026855487376451492,0.015991222113370895,0.9191290736198425,0.3936159908771515,-0.15234380960464478,0.26953133940696716,9.582035064697266
4677148,-0.0026855487376451492,0.015930186957120895,0.9191290736198425,0.3936159908771515,-0.15234380960464478,0.26953133940696716,9.582035064697266
4681220,-0.0026855487376451492,0.015930186957120895,0.9191290736198425,0.3936159908771515,-0.15234380960464478,0.34375011920928955,9.609378814697266
4686140,-0.0026855487376451492,0.015991222113370895,0.9191290736198425,0.3936159908771515,-0.15234380960464478,0.34375011920928955,9.609378814697266
4690692,-0.0026855487376451492,0.015991222113370895,0.9191290736198425,0.3936159908771515,-0.15234380960464478,0.34375011920928955,9.609378814697266
4694884,-0.0026855487376451492,0.015991222113370895,0.9191290736198425,0.3936159908771515,-0.15234380960464478,0.34375011920928955,9.609378814697266
4698932,-0.0026855487376451492,0.015991222113370895,0.9191290736198425,0.3936159908771515,-0.19140632450580597,0.23046883940696716,9.609378814697266
4703476,-0.0026855487376451492,0.015991222113370895,0.9191290736198425,0.3936159908771515,-0.19140632450580597,0.23046883940696716,9.609378814697266
4708052,-0.0026855487376451492,0.015991222113370895,0.9191290736198425,0.3936159908771515,-0.15234380960464478,0.26953133940696716,9.648441314697266
4712976,-0.0026855487376451492,0.015991222113370895,0.9191290736198425,0.3936159908771515,-0.19140632450580597,0.23046883940696716,9.609378814697266
4717568,-0.0026855487376451492,0.015991222113370895,0.9191290736198425,0.3936159908771515,-0.19140632450580597,0.23046883940696716,9.609378814697266
4722128,-0.0026855487376451492,0.015991222113370895,0.9191290736198425,0.3936159908771515,-0.19140632450580597,0.23046883940696716,9.609378814697266
4726196,-0.0026855487376451492,0.015930186957120895,0.9191290736198425,0.3936159908771515,-0.19140632450580597,0.23046883940696716,9.609378814697266
4730768,-0.0026855487376451492,0.015930186957120895,0.9191290736198425,0.3936159908771515,-0.19140632450580597,0.23046883940696716,9.609378814697266
4734956,-0.0026855487376451492,0.015930186957120895,0.9191290736198425,0.3936159908771515,-0.19140632450580597,0.23046883940696716,9.609378814697266
4740092,-0.0027465838938951492,0.015869151800870895,0.9191290736198425,0.3936159908771515,-0.19140632450580597,0.23046883940696716,9.609378814697266
4744720,-0.0027465838938951492,0.015869151800870895,0.9191290736198425,0.3936159908771515,-0.19140632450580597,0.23046883940696716,9.609378814697266
4749320,-0.0026855487376451492,0.015869151800870895,0.9191290736198425,0.3936159908771515,-0.19140632450580597,0.23046883940696716,9.609378814697266
4753356,-0.0026855487376451492,0.015869151800870895,0.9191290736198425,0.3936159908771515,-0.11328128725290298,0.26953133940696716,9.691410064697266
4756868,-0.0026245135813951492,0.015930186957120895,0.9191290736198425,0.3936159908771515,-0.11328128725290298,0.26953133940696716,9.691410064697266
4761640,-0.0026245135813951492,0.015930186957120895,0.9191290736198425,0.3936159908771515,-0.15234380960464478,0.34375011920928955,9.730472564697266
4766408,-0.0026245135813951492,0.015930186957120895,0.9191290736198425,0.3936159908771515,-0.11328128725290298,0.30468761920928955,9.687503814697266
4769904,-0.0026855487376451492,0.015930186957120895,0.9191290736198425,0.3935549557209015,-0.11328128725290298,0.30468761920928955,9.687503814697266
4774472,-0.0026855487376451492,0.015930186957120895,0.9191290736198425,0.3935549557209015,-0.15234380960464478,0.23046883940696716,9.578128814697266
4778892,-0.0026855487376451492,0.015930186957120895,0.9191290736198425,0.3935549557209015,-0.15234380960464478,0.26953133940696716,9.582035064697266
4784172,-0.0026855487376451492,0.015930186957120895,0.9191290736198425,0.3935549557209015,-0.15234380960464478,0.26953133940696716,9.582035064697266
4788776,-0.0026855487376451492,0.015930186957120895,0.9191290736198425,0.3935549557209015,-0.15234380960464478,0.26953133940696716,9.648441314697266
4793332,-0.0026855487376451492,0.015930186957120895,0.9191290736198425,0.3936159908771515,-0.15234380960464478,0.26953133940696716,9.648441314697266
4797384,-0.0026855487376451492,0.015930186957120895,0.9191290736198425,0.3936159908771515,-0.15234380960464478,0.30468761920928955,9.652347564697266
4801940,-0.0026855487376451492,0.015930186957120895,0.9191290736198425,0.3936159908771515,-0.15234380960464478,0.26953133940696716,9.582035064697266
4806008,-0.0026855487376451492,0.015930186957120895,0.9191290736198425,0.3936159908771515,-0.19140632450580597,0.23046883940696716,9.582035064697266
4811652,-0.0026855487376451492,0.015869151800870895,0.9191290736198425,0.3935549557209015,-0.19140632450580597,0.23046883940696716,9.582035064697266
4815852,-0.0026855487376451492,0.015869151800870895,0.9191290736198425,0.3935549557209015,-0.19140632450580597,0.23046883940696716,9.582035064697266
4820392,-0.0026855487376451492,0.015869151800870895,0.9191290736198425,0.3935549557209015,-0.19140632450580597,0.23046883940696716,9.582035064697266
4824600,-0.0026855487376451492,0.015930186957120895,0.9191290736198425,0.3935549557209015,-0.19140632450580597,0.23046883940696716,9.582035064697266
4829156,-0.0026855487376451492,0.015930186957120895,0.9191290736198425,0.3935549557209015,-0.19140632450580597,0.26953133940696716,9.687503814697266
4833720,-0.0026855487376451492,0.015930186957120895,0.9191290736198425,0.3935549557209015,-0.19140632450580597,0.26953133940696716,9.726566314697266
4838284,-0.0026855487376451492,0.015930186957120895,0.9191290736198425,0.3936159908771515,-0.19140632450580597,0.26953133940696716,9.726566314697266
4842836,-0.0026855487376451492,0.015930186957120895,0.9191290736198425,0.3936159908771515,-0.19140632450580597,0.26953133940696716,9.726566314697266
4846892,-0.0027465838938951492,0.015869151800870895,0.9191290736198425,0.3935549557209015,-0.19140632450580597,0.26953133940696716,9.726566314697266
4850368,-0.0026855487376451492,0.015869151800870895,0.9191290736198425,0.3935549557209015,-0.19140632450580597,0.26953133940696716,9.726566314697266
4855300,-0.0026855487376451492,0.015869151800870895,0.9191290736198425,0.3935549557209015,-0.19140632450580597,0.23046883940696716,9.542972564697266
4859364,-0.0026855487376451492,0.015869151800870895,0.9191290736198425,0.3935549557209015,-0.19140632450580597,0.26953133940696716,9.578128814697266
4864292,-0.0027465838938951492,0.015930186957120895,0.9191290736198425,0.3935549557209015,-0.19140632450580597,0.26953133940696716,9.578128814697266
4868832,-0.0027465838938951492,0.015930186957120895,0.9191290736198425,0.3935549557209015,-0.19140632450580597,0.26953133940696716,9.578128814697266
4873028,-0.0027465838938951492,0.015930186957120895,0.9191290736198425,0.3935549557209015,-0.19140632450580597,0.26953133940696716,9.578128814697266
4877436,-0.0027465838938951492,0.015930186957120895,0.9191290736198425,0.3935549557209015,-0.19140632450580597,0.30468761920928955,9.609378814697266
4881632,-0.0026855487376451492,0.015930186957120895,0.9191290736198425,0.3935549557209015,-0.19140632450580597,0.30468761920928955,9.609378814697266
4886172,-0.0026855487376451492,0.015930186957120895,0.9191290736198425,0.3935549557209015,-0.15234380960464478,0.23046883940696716,9.652347564697266
4891084,-0.0026855487376451492,0.015930186957120895,0.9191290736198425,0.3935549557209015,-0.19140632450580597,0.19140632450580597,9.609378814697266
4895636,-0.0026855487376451492,0.015991222113370895,0.9191290736198425,0.3935549557209015,-0.19140632450580597,0.19140632450580597,9.609378814697266
4900304,-0.0027465838938951492,0.016052257269620895,0.9191290736198425,0.3935549557209015,-0.19140632450580597,0.19140632450580597,9.609378814697266
4904884,-0.002807619282975793,0.016174327582120895,0.9191290736198425,0.3935549557209015,-0.19140632450580597,0.19140632450580597,9.609378814697266
4908928,-0.002807619282975793,0.016357433050870895,0.9191290736198425,0.3935549557209015,-0.19140632450580597,0.19140632450580597,9.609378814697266
4913128,-0.002868654439225793,0.016418468207120895,0.9191290736198425,0.3935549557209015,-0.19140632450580597,0.19140632450580597,9.609378814697266
4917684,-0.002929689595475793,0.016540538519620895,0.9191290736198425,0.3935549557209015,-0.19140632450580597,0.19140632450580597,9.609378814697266
4922288,-0.002929689595475793,0.016540538519620895,0.9191290736198425,0.3935549557209015,-0.30468761920928955,0.30468761920928955,9.648441314697266
4927204,-0.0031127952970564365,0.016479503363370895,0.9191290736198425,0.3935549557209015,-0.30468761920928955,0.30468761920928955,9.648441314697266
4931248,-0.0031127952970564365,0.016479503363370895,0.9191290736198425,0.3935549557209015,-0.30468761920928955,0.15234380960464478,9.343753814697266
4935856,-0.0031127952970564365,0.016418468207120895,0.9191290736198425,0.3935549557209015,-0.30468761920928955,0.15234380960464478,9.343753814697266
4939896,-0.003051759907975793,0.016479503363370895,0.9191290736198425,0.3935549557209015,-0.30468761920928955,0.15234380960464478,9.343753814697266
4944648,-0.002990724751725793,0.016479503363370895,0.9191290736198425,0.3935549557209015,-0.30468761920928955,0.15234380960464478,9.343753814697266
4948708,-0.002990724751725793,0.016479503363370895,0.9191290736198425,0.3935549557209015,-0.11328128725290298,0.42187514901161194,9.808597564697266
4953500,-0.002990724751725793,0.016479503363370895,0.9191290736198425,0.3935549557209015,0.23046883940696716,0.4609376788139343,9.652347564697266
4958076,-0.002990724751725793,0.016418468207120895,0.9191290736198425,0.3935549557209015,0.23046883940696716,0.4609376788139343,9.652347564697266
4962624,-0.0031738304533064365,0.016540538519620895,0.9191290736198425,0.3935549557209015,0.23046883940696716,0.4609376788139343,9.652347564697266
4967548,-0.0031738304533064365,0.016540538519620895,0.9191290736198425,0.3935549557209015,-0.11328128725290298,0.4960939288139343,9.30469036102295
4971744,-0.0032959007658064365,0.017272962257266045,0.9191290736198425,0.3935549557209015,-0.11328128725290298,0.4960939288139343,9.30469036102295
4975808,-0.0032959007658064365,0.017272962257266045,0.9191290736198425,0.3935549557209015,0.0,0.8437502980232239,10.304691314697266
4981284,-0.0032348656095564365,0.017639173194766045,0.9191290736198425,0.3935549557209015,0.0,0.8437502980232239,10.304691314697266
4986560,-0.0032348656095564365,0.017517102882266045,0.9191290736198425,0.3935549557209015,0.0,0.8437502980232239,10.304691314697266
4991140,-0.0032348656095564365,0.017517102882266045,0.9191290736198425,0.3935549557209015,-0.38281264901161194,0.11328128725290298,9.609378814697266
4995200,-0.0033569359220564365,0.016723643988370895,0.9191290736198425,0.3935549557209015,-0.38281264901161194,0.11328128725290298,9.609378814697266
4999752,-0.0032959007658064365,0.016540538519620895,0.9191290736198425,0.3935549557209015,-0.38281264901161194,0.11328128725290298,9.609378814697266
5004700,-0.0032959007658064365,0.016540538519620895,0.9191290736198425,0.3935549557209015,-0.5351564288139343,0.0,9.26562786102295
5008748,-0.002868654439225793,0.016235362738370895,0.9191290736198425,0.3935549557209015,-0.5351564288139343,0.0,9.26562786102295
5013496,-0.0027465838938951492,0.016174327582120895,0.9191290736198425,0.3935549557209015,-0.5351564288139343,0.0,9.26562786102295
5018984,-0.0026245135813951492,0.016174327582120895,0.9191901087760925,0.3935549557209015,-0.5351564288139343,0.0,9.26562786102295
5024652,-0.0026245135813951492,0.016113292425870895,0.9191901087760925,0.3935549557209015,-0.5351564288139343,0.0,9.26562786102295
5029188,-0.0027465838938951492,0.015991222113370895,0.9191901087760925,0.3935549557209015,-0.5351564288139343,0.0,9.26562786102295
5033748,-0.002807619282975793,0.015930186957120895,0.9191901087760925,0.3935549557209015,-0.5351564288139343,0.0,9.26562786102295
5038304,-0.002807619282975793,0.015869151800870895,0.9191901087760925,0.3934939205646515,-0.5351564288139343,0.0,9.26562786102295
5042708,-0.002807619282975793,0.015869151800870895,0.9191901087760925,0.3934939205646515,-0.5351564288139343,0.0,9.26562786102295
5047304,-0.0027465838938951492,0.015930186957120895,0.9191901087760925,0.3935549557209015,-0.5351564288139343,0.0,9.26562786102295
5052228,-0.0027465838938951492,0.015930186957120895,0.9191901087760925,0.3935549557209015,-0.5351564288139343,0.0,9.26562786102295
5056780,-0.0025024432688951492,0.016113292425870895,0.9191901087760925,0.3934939205646515,-0.5351564288139343,0.0,9.26562786102295
5061340,-0.0023803727235645056,0.016174327582120895,0.9192511439323425,0.3933108150959015,-0.5351564288139343,0.0,9.26562786102295
5065900,-0.0023803727235645056,0.016174327582120895,0.9192511439323425,0.3933108150959015,1.8007818460464478,-0.30468761920928955,9.804691314697266
5070476,-0.0023803727235645056,0.016174327582120895,0.9192511439323425,0.3933108150959015,-0.039062514901161194,-0.34375011920928955,10.109378814697266
5075124,-0.0023803727235645056,0.016174327582120895,0.9192511439323425,0.3933108150959015,-0.6132814884185791,0.5742189288139343,10.035160064697266
5079556,-0.002014161553233862,0.017456067726016045,0.9199835658073425,0.3916018307209015,-0.6132814884185791,0.5742189288139343,10.035160064697266
5084136,-0.002075196709483862,0.017456067726016045,0.9200446009635925,0.3914797604084015,-0.6132814884185791,0.5742189288139343,10.035160064697266
5088172,-0.0021972672548145056,0.017395032569766045,0.9201056361198425,0.3912966549396515,-0.6132814884185791,0.5742189288139343,10.035160064697266
5093204,-0.0022583024110645056,0.017333997413516045,0.9201056361198425,0.3912966549396515,-0.6132814884185791,0.5742189288139343,10.035160064697266
5098144,-0.0022583024110645056,0.017333997413516045,0.9201056361198425,0.3912966549396515,-0.5742189288139343,0.7265627384185791,9.343753814697266
5103996,-0.0024414081126451492,0.017456067726016045,0.9201666712760925,0.3911745846271515,-0.5742189288139343,0.7265627384185791,9.343753814697266
5108544,-0.0026245135813951492,0.017700208351016045,0.9202277064323425,0.3909914791584015,-0.5742189288139343,0.7265627384185791,9.343753814697266
5113092,-0.002807619282975793,0.017761243507266045,0.9202887415885925,0.3908083736896515,-0.5742189288139343,0.7265627384185791,9.343753814697266
5117836,-0.003051759907975793,0.017883313819766045,0.9204108119010925,0.3905642330646515,-0.5742189288139343,0.7265627384185791,9.343753814697266
5122388,-0.0032959007658064365,0.018127454444766045,0.9204718470573425,0.3903811275959015,-0.5742189288139343,0.7265627384185791,9.343753814697266
5126440,-0.0032959007658064365,0.018127454444766045,0.9204718470573425,0.3903811275959015,-0.15234380960464478,0.34375011920928955,10.265628814697266
5130900,-0.0032959007658064365,0.018127454444766045,0.9204718470573425,0.3903811275959015,-0.7265627384185791,0.5351564288139343,10.304691314697266
5135480,-0.004089358262717724,0.018554700538516045,0.9205939173698425,0.3900149166584015,-0.7265627384185791,0.5351564288139343,10.304691314697266
5140048,-0.004577639978379011,0.018615735694766045,0.9206549525260925,0.3899538815021515,-0.7265627384185791,0.5351564288139343,10.304691314697266
5144132,-0.004577639978379011,0.018615735694766045,0.9206549525260925,0.3899538815021515,-0.4609376788139343,0.7656252980232239,10.917972564697266
5149404,-0.004577639978379011,0.018615735694766045,0.9206549525260925,0.3899538815021515,-0.5351564288139343,0.7265627384185791,10.800785064697266
5153944,-0.004577639978379011,0.018615735694766045,0.9206549525260925,0.3899538815021515,-0.42187514901161194,0.6914064884185791,10.109378814697266
5158356,-0.004577639978379011,0.018615735694766045,0.9206549525260925,0.3899538815021515,-0.19140632450580597,0.6132814884185791,10.187503814697266
5162916,-0.009399420581758022,0.019470227882266045,0.9204718470573425,0.3901369869709015,-0.19140632450580597,0.6132814884185791,10.187503814697266
5167460,-0.010803230106830597,0.020019546151161194,0.9204108119010925,0.3903200924396515,-0.19140632450580597,0.6132814884185791,10.187503814697266
5172172,-0.012207039631903172,0.020507827401161194,0.9202887415885925,0.3905642330646515,-0.19140632450580597,0.6132814884185791,10.187503814697266
5176724,-0.013671884313225746,0.021057143807411194,0.9201666712760925,0.3907473385334015,-0.19140632450580597,0.6132814884185791,10.187503814697266
5181696,-0.013671884313225746,0.021057143807411194,0.9201666712760925,0.3907473385334015,-0.4609376788139343,0.8046877980232239,9.613285064697266
5186108,-0.016479503363370895,0.022277848795056343,0.9198614954948425,0.3912356197834015,-0.4609376788139343,0.8046877980232239,9.613285064697266
5190324,-0.017211927101016045,0.022583024576306343,0.9198004603385925,0.3912966549396515,-0.4609376788139343,0.8046877980232239,9.613285064697266
5194904,-0.018554700538516045,0.023132340982556343,0.9196783900260925,0.3914797604084015,-0.4609376788139343,0.8046877980232239,9.613285064697266
5199460,-0.018554700538516045,0.023132340982556343,0.9196783900260925,0.3914797604084015,-1.0351566076278687,0.30468761920928955,9.460941314697266
5204388,-0.018554700538516045,0.023132340982556343,0.9196783900260925,0.3914797604084015,-0.9179691076278687,0.4609376788139343,9.691410064697266
5209104,-0.022033706307411194,0.025146503001451492,0.9193732142448425,0.3919680416584015,-0.9179691076278687,0.4609376788139343,9.691410064697266
5213692,-0.023193376138806343,0.025878924876451492,0.9192511439323425,0.3920901119709015,-0.9179691076278687,0.4609376788139343,9.691410064697266
5218968,-0.024597184732556343,0.026794452220201492,0.9191290736198425,0.3922732174396515,-0.9179691076278687,0.4609376788139343,9.691410064697266
5223940,-0.024597184732556343,0.026794452220201492,0.9191290736198425,0.3922732174396515,-0.8437502980232239,0.42187514901161194,9.808597564697266
5228532,-0.02825929783284664,0.02960207127034664,0.9187628626823425,0.3926394283771515,-0.8437502980232239,0.42187514901161194,9.808597564697266
5232584,-0.02972414158284664,0.03076174110174179,0.9186407923698425,0.3928225338459015,-0.8437502980232239,0.42187514901161194,9.808597564697266
5237152,-0.03045656532049179,0.03137209266424179,0.9185187220573425,0.3928835690021515,-0.8437502980232239,0.42187514901161194,9.808597564697266
5241716,-0.03186037391424179,0.03247072547674179,0.9183966517448425,0.3930666744709015,-0.8437502980232239,0.42187514901161194,9.808597564697266
5246272,-0.03314211219549179,0.03369142860174179,0.9182135462760925,0.3932497799396515,-0.8437502980232239,0.42187514901161194,9.808597564697266
5250352,-0.03436281904578209,0.03485110029578209,0.9180304408073425,0.3934328854084015,-0.8437502980232239,0.42187514901161194,9.808597564697266
5254560,-0.03491213545203209,0.03546145185828209,0.9179694056510925,0.3935549557209015,-0.8437502980232239,0.42187514901161194,9.808597564697266
5259108,-0.03491213545203209,0.03546145185828209,0.9179694056510925,0.3935549557209015,-1.0742191076278687,0.039062514901161194,9.613285064697266
5264036,-0.03491213545203209,0.03546145185828209,0.9179694056510925,0.3935549557209015,-1.1484378576278687,0.19140632450580597,9.765628814697266
5267536,-0.03802492842078209,0.03900149092078209,0.9173590540885925,0.3944094479084015,-1.1484378576278687,0.19140632450580597,9.765628814697266
5273276,-0.03851320967078209,0.03961184620857239,0.9172369837760925,0.3945315182209015,-1.1484378576278687,0.19140632450580597,9.765628814697266
5277412,-0.03851320967078209,0.03961184620857239,0.9172369837760925,0.3945315182209015,-1.3007817268371582,0.4960939288139343,9.769535064697266
5282128,-0.03851320967078209,0.03961184620857239,0.9172369837760925,0.3945315182209015,-1.3007817268371582,0.4960939288139343,9.843753814697266
5286696,-0.03851320967078209,0.03961184620857239,0.9172369837760925,0.3945315182209015,-1.2656254768371582,0.4960939288139343,10.000003814697266
5291244,-0.04217532277107239,0.044799838215112686,0.9162604212760925,0.3957522213459015,-1.2656254768371582,0.4960939288139343,10.000003814697266
5296168,-0.04217532277107239,0.044799838215112686,0.9162604212760925,0.3957522213459015,-1.5312505960464478,0.4960939288139343,9.960941314697266
5300748,-0.04357913136482239,0.047363314777612686,0.9158942103385925,0.3963015675544739,-1.5312505960464478,0.4960939288139343,9.960941314697266
5305056,-0.04357913136482239,0.047363314777612686,0.9158942103385925,0.3963015675544739,-1.4570317268371582,0.30468761920928955,10.000003814697266
5309980,-0.044555697590112686,0.049926795065402985,0.9154669642448425,0.3967898488044739,-1.4570317268371582,0.30468761920928955,10.000003814697266
5314060,-0.044555697590112686,0.049926795065402985,0.9154669642448425,0.3967898488044739,-1.4921879768371582,0.30468761920928955,9.691410064697266
5318988,-0.045166049152612686,0.052001990377902985,0.9151617884635925,0.3971560597419739,-1.4921879768371582,0.30468761920928955,9.691410064697266
5323544,-0.045410189777612686,0.053466834127902985,0.9149786829948425,0.3973391652107239,-1.4921879768371582,0.30468761920928955,9.691410064697266
5327736,-0.045593295246362686,0.05493168160319328,0.9147955775260925,0.3975222706794739,-1.4921879768371582,0.30468761920928955,9.691410064697266
5332788,-0.045593295246362686,0.05493168160319328,0.9147955775260925,0.3975222706794739,-1.3398442268371582,0.6132814884185791,9.730472564697266
5336840,-0.045898471027612686,0.05810550972819328,0.9144904017448425,0.3977664113044739,-1.3398442268371582,0.6132814884185791,9.730472564697266
5341408,-0.046081576496362686,0.05889896675944328,0.9144293665885925,0.3978274464607239,-1.3398442268371582,0.6132814884185791,9.730472564697266
5345964,-0.046447787433862686,0.06048588454723358,0.9141852259635925,0.3980105519294739,-1.3398442268371582,0.6132814884185791,9.730472564697266
5350016,-0.046936068683862686,0.06207279860973358,0.9140021204948425,0.3981936573982239,-1.3398442268371582,0.6132814884185791,9.730472564697266
5354612,-0.047241244465112686,0.06292729079723358,0.9138800501823425,0.3983157277107239,-1.3398442268371582,0.6132814884185791,9.730472564697266
5359232,-0.048034701496362686,0.06451420485973358,0.9135748744010925,0.3986209034919739,-1.3398442268371582,0.6132814884185791,9.730472564697266
5363800,-0.049072299152612686,0.06610111892223358,0.9132696986198425,0.3989871144294739,-1.3398442268371582,0.6132814884185791,9.730472564697266
5368016,-0.050231970846652985,0.06756596267223358,0.9129034876823425,0.3993533253669739,-1.3398442268371582,0.6132814884185791,9.730472564697266
5372576,-0.050231970846652985,0.06756596267223358,0.9129034876823425,0.3993533253669739,-1.1875004768371582,0.9960941076278687,10.074222564697266
5376680,-0.050231970846652985,0.06756596267223358,0.9129034876823425,0.3993533253669739,-1.2265629768371582,0.8437502980232239,9.964847564697266
5382176,-0.053772009909152985,0.07104497402906418,0.9119879603385925,0.4003909230232239,-1.2265629768371582,0.8437502980232239,9.964847564697266
5387452,-0.05535892769694328,0.07244878262281418,0.9115607142448425,0.4008792042732239,-1.2265629768371582,0.8437502980232239,9.964847564697266
5392028,-0.05804447457194328,0.07446294277906418,0.9109503626823425,0.4016116261482239,-1.2265629768371582,0.8437502980232239,9.964847564697266
5396600,-0.05804447457194328,0.07446294277906418,0.9109503626823425,0.4016116261482239,-1.2656254768371582,0.9960941076278687,9.925785064697266
5401020,-0.05804447457194328,0.07446294277906418,0.9109503626823425,0.4016116261482239,-1.4179692268371582,1.1093753576278687,9.769535064697266
5405588,-0.06268315017223358,0.07781987637281418,0.9097906947135925,0.4028933644294739,-1.4179692268371582,1.1093753576278687,9.769535064697266
5409632,-0.06451420485973358,0.07897955179214478,0.9093634486198425,0.4033206105232239,-1.4179692268371582,1.1093753576278687,9.769535064697266
5414320,-0.06542973220348358,0.07952886819839478,0.9091803431510925,0.4035037159919739,-1.4179692268371582,1.1093753576278687,9.769535064697266
5419856,-0.06542973220348358,0.07952886819839478,0.9091803431510925,0.4035037159919739,-1.4570317268371582,0.9179691076278687,9.16015911102295
5424772,-0.06542973220348358,0.07952886819839478,0.9091803431510925,0.4035037159919739,-1.3789067268371582,0.7265627384185791,9.04297161102295
5428832,-0.06542973220348358,0.07952886819839478,0.9091803431510925,0.4035037159919739,-1.7226568460464478,0.8437502980232239,8.54297161102295
5433532,-0.07165532559156418,0.08300787210464478,0.9078375697135925,0.4047854542732239,-1.7226568460464478,0.8437502980232239,8.54297161102295
5436868,-0.07165532559156418,0.08300787210464478,0.9078375697135925,0.4047854542732239,-1.7617193460464478,0.7265627384185791,8.88672161102295
5440344,-0.07464604824781418,0.08496099710464478,0.9071051478385925,0.4053958058357239,-1.7617193460464478,0.7265627384185791,8.88672161102295
5444388,-0.07464604824781418,0.08496099710464478,0.9071051478385925,0.4053958058357239,-2.0703132152557373,0.6523439884185791,8.81250286102295
5448568,-0.07580571621656418,0.08569341897964478,0.9068610072135925,0.4055789113044739,-2.0703132152557373,0.6523439884185791,8.81250286102295
5452620,-0.07690434902906418,0.08636480569839478,0.9066779017448425,0.4057009816169739,-2.0703132152557373,0.6523439884185791,8.81250286102295
5456824,-0.07745366543531418,0.08666998147964478,0.9065558314323425,0.4058230519294739,-2.0703132152557373,0.6523439884185791,8.81250286102295
5461384,-0.07745366543531418,0.08666998147964478,0.9065558314323425,0.4058230519294739,-2.1054694652557373,0.8437502980232239,8.81250286102295
5466040,-0.07745366543531418,0.08666998147964478,0.9065558314323425,0.4058230519294739,-2.1835944652557373,1.1484378576278687,9.26562786102295
5470656,-0.08087164163589478,0.08874518424272537,0.9058234095573425,0.4063113331794739,-2.1835944652557373,1.1484378576278687,9.26562786102295
5474724,-0.08087164163589478,0.08874518424272537,0.9058234095573425,0.4063113331794739,-2.3359384536743164,1.0742191076278687,9.386722564697266
5480228,-0.08300787210464478,0.08959967643022537,0.9053961634635925,0.4066775441169739,-2.3359384536743164,1.0742191076278687,9.386722564697266
5484784,-0.08459478616714478,0.09027106314897537,0.9050909876823425,0.4068606495857239,-2.3359384536743164,1.0742191076278687,9.386722564697266
5488840,-0.08728033304214478,0.09124762564897537,0.9045416712760925,0.4072878956794739,-2.3359384536743164,1.0742191076278687,9.386722564697266
5493388,-0.08819586038589478,0.09155280143022537,0.9043585658073425,0.4074099659919739,-2.3359384536743164,1.0742191076278687,9.386722564697266
5497456,-0.09014899283647537,0.09216315299272537,0.9039923548698425,0.4076541066169739,-2.3359384536743164,1.0742191076278687,9.386722564697266
5502036,-0.09124762564897537,0.09240729361772537,0.9038092494010925,0.4077151417732239,-2.3359384536743164,1.0742191076278687,9.386722564697266
5506220,-0.09326178580522537,0.09289557486772537,0.9034430384635925,0.4079592823982239,-2.3359384536743164,1.0742191076278687,9.386722564697266
5510636,-0.09326178580522537,0.09289557486772537,0.9034430384635925,0.4079592823982239,-2.4531259536743164,0.8828127980232239,9.19922161102295
5515204,-0.09625250846147537,0.09344489127397537,0.9029547572135925,0.4082644581794739,-2.4531259536743164,0.8828127980232239,9.19922161102295
5520484,-0.09814459830522537,0.09381110221147537,0.9026495814323425,0.4084475636482239,-2.4531259536743164,0.8828127980232239,9.19922161102295
5524576,-0.10076911747455597,0.09423834830522537,0.9021002650260925,0.4088137745857239,-2.4531259536743164,0.8828127980232239,9.19922161102295
5528796,-0.10156257450580597,0.09442145377397537,0.9019781947135925,0.4089358448982239,-2.4531259536743164,0.8828127980232239,9.19922161102295
5533772,-0.10156257450580597,0.09442145377397537,0.9019781947135925,0.4089358448982239,-2.6054697036743164,0.7656252980232239,9.07812786102295
5538704,-0.10156257450580597,0.09442145377397537,0.9019781947135925,0.4089358448982239,-2.6445322036743164,0.8828127980232239,9.11719036102295
5542752,-0.10552985966205597,0.09509284049272537,0.9012457728385925,0.4093630909919739,-2.6445322036743164,0.8828127980232239,9.11719036102295
5547460,-0.10601814091205597,0.09527594596147537,0.9011237025260925,0.4094241261482239,-2.6445322036743164,0.8828127980232239,9.11719036102295
5552376,-0.10601814091205597,0.09527594596147537,0.9011237025260925,0.4094241261482239,-2.5664072036743164,0.9570316076278687,9.30469036102295
5557296,-0.10601814091205597,0.09527594596147537,0.9011237025260925,0.4094241261482239,-2.7578134536743164,0.9179691076278687,9.26953411102295
5561372,-0.10601814091205597,0.09527594596147537,0.9011237025260925,0.4094241261482239,-2.7968759536743164,0.8437502980232239,9.23047161102295
5565780,-0.10601814091205597,0.09527594596147537,0.9011237025260925,0.4094241261482239,-2.7187509536743164,0.8828127980232239,9.26953411102295
5570388,-0.10961922258138657,0.09637457877397537,0.9003302454948425,0.4100344777107239,-2.7187509536743164,0.8828127980232239,9.26953411102295
5574976,-0.10961922258138657,0.09637457877397537,0.9003302454948425,0.4100344777107239,-2.7578134536743164,0.8828127980232239,9.343753814697266
5580108,-0.11071785539388657,0.09692389518022537,0.9000861048698425,0.4101565480232239,-2.7578134536743164,0.8828127980232239,9.343753814697266
5584672,-0.11071785539388657,0.09692389518022537,0.9000861048698425,0.4101565480232239,-2.6445322036743164,0.9960941076278687,9.26953411102295
5588784,-0.11071785539388657,0.09692389518022537,0.9000861048698425,0.4101565480232239,-2.6796884536743164,1.0742191076278687,9.19922161102295
5592264,-0.11230476945638657,0.09808356314897537,0.8996588587760925,0.4104006886482239,-2.6796884536743164,1.0742191076278687,9.19922161102295
5597420,-0.11230476945638657,0.09808356314897537,0.8996588587760925,0.4104006886482239,-2.8359384536743164,1.1875004768371582,9.26953411102295
5601836,-0.11230476945638657,0.09808356314897537,0.8996588587760925,0.4104006886482239,-2.8359384536743164,1.1484378576278687,9.347660064697266
5606036,-0.11358650773763657,0.09887702018022537,0.8993536829948425,0.4105227589607239,-2.8359384536743164,1.1484378576278687,9.347660064697266
5610632,-0.11358650773763657,0.09887702018022537,0.8993536829948425,0.4105227589607239,-2.8710947036743164,0.9570316076278687,9.26953411102295
5615204,-0.11499031633138657,0.09942634403705597,0.8990485072135925,0.4106448292732239,-2.8710947036743164,0.9570316076278687,9.26953411102295
5620128,-0.11499031633138657,0.09942634403705597,0.8990485072135925,0.4106448292732239,-2.7968759536743164,0.8828127980232239,9.16015911102295
5624336,-0.11657723039388657,0.09991462528705597,0.8987433314323425,0.4107058644294739,-2.7968759536743164,0.8828127980232239,9.16015911102295
5628896,-0.11737068742513657,0.10015876591205597,0.8986212611198425,0.4107668995857239,-2.7968759536743164,0.8828127980232239,9.16015911102295
5632952,-0.11737068742513657,0.10015876591205597,0.8986212611198425,0.4107668995857239,-2.7578134536743164,0.8437502980232239,9.07812786102295
5637528,-0.11737068742513657,0.10015876591205597,0.8986212611198425,0.4107668995857239,-2.7968759536743164,0.8046877980232239,9.11719036102295
5642084,-0.11914070695638657,0.10107429325580597,0.8981940150260925,0.4108889698982239,-2.7968759536743164,0.8046877980232239,9.11719036102295
5646644,-0.11987313628196716,0.10150153934955597,0.8980109095573425,0.4110110402107239,-2.7968759536743164,0.8046877980232239,9.11719036102295
5651328,-0.11987313628196716,0.10150153934955597,0.8980109095573425,0.4110110402107239,-2.7578134536743164,0.7265627384185791,9.11719036102295
5656656,-0.12072762846946716,0.10223396122455597,0.8977667689323425,0.4110720753669739,-2.7578134536743164,0.7265627384185791,9.11719036102295
5660836,-0.12072762846946716,0.10223396122455597,0.8977667689323425,0.4110720753669739,-2.8359384536743164,0.6523439884185791,9.03906536102295
5665388,-0.12194833159446716,0.10375984013080597,0.8973395228385925,0.4111941456794739,-2.8359384536743164,0.6523439884185791,9.03906536102295
5669460,-0.12194833159446716,0.10375984013080597,0.8973395228385925,0.4111941456794739,-2.9492197036743164,0.7265627384185791,8.96484661102295
5674024,-0.12243661284446716,0.10491950809955597,0.8971564173698425,0.4112551808357239,-2.9492197036743164,0.7265627384185791,8.96484661102295
5678156,-0.12243661284446716,0.10491950809955597,0.8971564173698425,0.4112551808357239,-2.7578134536743164,0.8046877980232239,9.12109661102295
5682724,-0.12243661284446716,0.10491950809955597,0.8971564173698425,0.4112551808357239,-2.7968759536743164,0.8828127980232239,9.26562786102295
5686852,-0.12243661284446716,0.10491950809955597,0.8971564173698425,0.4112551808357239,-2.8359384536743164,0.9570316076278687,9.26953411102295
5691776,-0.12298592925071716,0.10839851200580597,0.8966071009635925,0.4113772511482239,-2.8359384536743164,0.9570316076278687,9.26953411102295
5696328,-0.12316903471946716,0.10949715226888657,0.8964239954948425,0.4114382863044739,-2.8359384536743164,0.9570316076278687,9.26953411102295
5700944,-0.12329110503196716,0.11071785539388657,0.8962408900260925,0.4114382863044739,-2.8359384536743164,0.9570316076278687,9.26953411102295
5705000,-0.12353524565696716,0.11212166398763657,0.8959967494010925,0.4114993214607239,-2.8359384536743164,0.9570316076278687,9.26953411102295
5709196,-0.12359628081321716,0.11279305070638657,0.8958746790885925,0.4115603566169739,-2.8359384536743164,0.9570316076278687,9.26953411102295
5714100,-0.12359628081321716,0.11279305070638657,0.8958746790885925,0.4115603566169739,-3.2929699420928955,1.6835943460464478,8.46484661102295
5719016,-0.12359628081321716,0.11279305070638657,0.8958746790885925,0.4115603566169739,-3.0273449420928955,1.0351566076278687,9.15625286102295
5722488,-0.12384042143821716,0.11590584367513657,0.8953253626823425,0.4118655323982239,-3.0273449420928955,1.0351566076278687,9.15625286102295
5728120,-0.12390145659446716,0.11627205461263657,0.8952643275260925,0.4118655323982239,-3.0273449420928955,1.0351566076278687,9.15625286102295
5732668,-0.12390145659446716,0.11627205461263657,0.8952643275260925,0.4118655323982239,-3.4101574420928955,1.1484378576278687,8.50390911102295
5738180,-0.12408456206321716,0.11688240617513657,0.8952032923698425,0.4117434620857239,-3.4101574420928955,1.1484378576278687,8.50390911102295
5742764,-0.12396249175071716,0.11694344133138657,0.8952032923698425,0.4117434620857239,-3.4101574420928955,1.1484378576278687,8.50390911102295
5747372,-0.12390145659446716,0.11688240617513657,0.8952643275260925,0.4116824269294739,-3.4101574420928955,1.1484378576278687,8.50390911102295
5752656,-0.12377938628196716,0.11669930070638657,0.8953253626823425,0.4116213917732239,-3.4101574420928955,1.1484378576278687,8.50390911102295
5757624,-0.12377938628196716,0.11669930070638657,0.8953253626823425,0.4116213917732239,-3.1796886920928955,0.6523439884185791,8.69531536102295
5762232,-0.12377938628196716,0.11669930070638657,0.8953253626823425,0.4116213917732239,-3.1796886920928955,0.9179691076278687,9.00390911102295
5766316,-0.12377938628196716,0.11669930070638657,0.8953253626823425,0.4116213917732239,-3.1796886920928955,0.9570316076278687,9.08203411102295
5770860,-0.12323006987571716,0.11682137101888657,0.8953863978385925,0.4116213917732239,-3.1796886920928955,0.9570316076278687,9.08203411102295
5775424,-0.12316903471946716,0.11700447648763657,0.8953253626823425,0.4116824269294739,-3.1796886920928955,0.9570316076278687,9.08203411102295
5779972,-0.12316903471946716,0.11737068742513657,0.8952643275260925,0.4118044972419739,-3.1796886920928955,0.9570316076278687,9.08203411102295
5783456,-0.12323006987571716,0.11773689836263657,0.8951422572135925,0.4119265675544739,-3.1796886920928955,0.9570316076278687,9.08203411102295
5788004,-0.12323006987571716,0.11773689836263657,0.8951422572135925,0.4119265675544739,-3.1015636920928955,1.1875004768371582,9.15625286102295
5792940,-0.12323006987571716,0.11773689836263657,0.8951422572135925,0.4119265675544739,-3.1796886920928955,1.1484378576278687,9.19922161102295
5797880,-0.12323006987571716,0.11773689836263657,0.8951422572135925,0.4119265675544739,-3.1406261920928955,1.0742191076278687,9.00000286102295
5802452,-0.12323006987571716,0.11773689836263657,0.8951422572135925,0.4119265675544739,-3.1796886920928955,1.0351566076278687,8.96484661102295
5807096,-0.12426766753196716,0.11950691789388657,0.8945319056510925,0.4124758839607239,-3.1796886920928955,1.0351566076278687,8.96484661102295
5811164,-0.12426766753196716,0.11950691789388657,0.8945319056510925,0.4124758839607239,-3.0664074420928955,1.0742191076278687,8.92578411102295
5815828,-0.12426766753196716,0.11950691789388657,0.8945319056510925,0.4124758839607239,-3.1015636920928955,0.9960941076278687,8.84375286102295
5820388,-0.12524423003196716,0.12036141753196716,0.8941656947135925,0.4126589894294739,-3.1015636920928955,0.9960941076278687,8.84375286102295
5825340,-0.12567147612571716,0.12066659331321716,0.8940436244010925,0.4127200245857239,-3.1015636920928955,0.9960941076278687,8.84375286102295
5830252,-0.12567147612571716,0.12066659331321716,0.8940436244010925,0.4127200245857239,-3.0664074420928955,1.0351566076278687,8.81250286102295
5835176,-0.12634286284446716,0.12133798003196716,0.8937384486198425,0.4129641652107239,-3.0664074420928955,1.0351566076278687,8.81250286102295
5839228,-0.12658700346946716,0.12164315581321716,0.8936163783073425,0.4130862355232239,-3.0664074420928955,1.0351566076278687,8.81250286102295
5843952,-0.12670907378196716,0.12176522612571716,0.8935553431510925,0.4131472706794739,-3.0664074420928955,1.0351566076278687,8.81250286102295
5848368,-0.12670907378196716,0.12176522612571716,0.8935553431510925,0.4131472706794739,-3.1796886920928955,1.0742191076278687,9.07812786102295
5852936,-0.12701424956321716,0.12231454253196716,0.8932501673698425,0.4135134816169739,-3.1796886920928955,1.0742191076278687,9.07812786102295
5857516,-0.12713631987571716,0.12261971831321716,0.8931280970573425,0.4136965870857239,-3.1796886920928955,1.0742191076278687,9.07812786102295
5862076,-0.12725839018821716,0.12292489409446716,0.8929449915885925,0.4138796925544739,-3.1796886920928955,1.0742191076278687,9.07812786102295
5866632,-0.12738046050071716,0.12335214018821716,0.8927618861198425,0.4141238331794739,-3.1796886920928955,1.0742191076278687,9.07812786102295
5871280,-0.12750253081321716,0.12371835112571716,0.8925787806510925,0.4143679738044739,-3.1796886920928955,1.0742191076278687,9.07812786102295
5876240,-0.12750253081321716,0.12371835112571716,0.8925787806510925,0.4143679738044739,-3.4492199420928955,1.3007817268371582,9.03906536102295
5880356,-0.12774667143821716,0.12445077300071716,0.8922736048698425,0.4147952198982239,-3.4492199420928955,1.3007817268371582,9.03906536102295
5884948,-0.12780770659446716,0.12463387846946716,0.8922125697135925,0.4148562550544739,-3.4492199420928955,1.3007817268371582,9.03906536102295
5889864,-0.12799081206321716,0.12500008940696716,0.8920294642448425,0.4150393605232239,-3.4492199420928955,1.3007817268371582,9.03906536102295
5894420,-0.12817391753196716,0.12530526518821716,0.8919073939323425,0.4152224659919739,-3.4492199420928955,1.3007817268371582,9.03906536102295
5898468,-0.12841805815696716,0.12554940581321716,0.8917853236198425,0.4153445363044739,-3.4492199420928955,1.3007817268371582,9.03906536102295
5903212,-0.12860116362571716,0.12567147612571716,0.8916632533073425,0.4154055714607239,-3.4492199420928955,1.3007817268371582,9.03906536102295
5908704,-0.12860116362571716,0.12567147612571716,0.8916632533073425,0.4154055714607239,-3.4843761920928955,1.1484378576278687,9.07812786102295
5913636,-0.12860116362571716,0.12567147612571716,0.8916632533073425,0.4154055714607239,-3.5234386920928955,1.1093753576278687,9.07812786102295
5917752,-0.12860116362571716,0.12567147612571716,0.8916632533073425,0.4154055714607239,-3.3320324420928955,1.0351566076278687,9.07812786102295
5922684,-0.12860116362571716,0.12567147612571716,0.8916632533073425,0.4154055714607239,-3.2929699420928955,1.0351566076278687,9.03906536102295
5926748,-0.12860116362571716,0.12567147612571716,0.8916632533073425,0.4154055714607239,-3.2929699420928955,1.0742191076278687,9.04297161102295
5931304,-0.12860116362571716,0.12567147612571716,0.8916632533073425,0.4154055714607239,-3.2578136920928955,1.0742191076278687,8.96484661102295
5936224,-0.12860116362571716,0.12567147612571716,0.8916632533073425,0.4154055714607239,-3.2578136920928955,1.0742191076278687,8.88672161102295
5940812,-0.12860116362571716,0.12567147612571716,0.8916632533073425,0.4154055714607239,-3.3710949420928955,1.3398442268371582,8.92578411102295
5945552,-0.12860116362571716,0.12567147612571716,0.8916632533073425,0.4154055714607239,-3.4492199420928955,1.4921879768371582,8.92578411102295
5950288,-0.13098153471946716,0.12939462065696716,0.8901373744010925,0.4169314503669739,-3.4492199420928955,1.4921879768371582,8.92578411102295
5954400,-0.13098153471946716,0.12939462065696716,0.8901373744010925,0.4169314503669739,-3.4101574420928955,1.6093755960464478,9.08203411102295
5958992,-0.13098153471946716,0.12939462065696716,0.8901373744010925,0.4169314503669739,-3.3710949420928955,1.6484380960464478,9.12109661102295
5963564,-0.13098153471946716,0.12939462065696716,0.8901373744010925,0.4169314503669739,-3.3320324420928955,1.6484380960464478,9.26562786102295
5968492,-0.13098153471946716,0.12939462065696716,0.8901373744010925,0.4169314503669739,-3.3320324420928955,1.5703130960464478,9.343753814697266
5973416,-0.13098153471946716,0.12939462065696716,0.8901373744010925,0.4169314503669739,-3.3320324420928955,1.4179692268371582,9.382816314697266
5977992,-0.13012704253196716,0.12969979643821716,0.8901373744010925,0.4170535206794739,-3.3320324420928955,1.4179692268371582,9.382816314697266
5982320,-0.13012704253196716,0.12969979643821716,0.8901373744010925,0.4169924855232239,-3.3320324420928955,1.4179692268371582,9.382816314697266
5987084,-0.13012704253196716,0.12969979643821716,0.8901373744010925,0.4169924855232239,-3.4492199420928955,0.9960941076278687,9.23047161102295
5991656,-0.13018807768821716,0.12969979643821716,0.8901984095573425,0.4169314503669739,-3.4492199420928955,0.9960941076278687,9.23047161102295
5996572,-0.13031014800071716,0.12988290190696716,0.8901373744010925,0.4168704152107239,-3.4492199420928955,0.9960941076278687,9.23047161102295
6000792,-0.13049325346946716,0.13012704253196716,0.8901373744010925,0.4168093800544739,-3.4492199420928955,0.9960941076278687,9.23047161102295
6005340,-0.13067635893821716,0.13049325346946716,0.8900153040885925,0.4168093800544739,-3.4492199420928955,0.9960941076278687,9.23047161102295
6009908,-0.13067635893821716,0.13049325346946716,0.8900153040885925,0.4168093800544739,-3.6015636920928955,1.4179692268371582,9.19922161102295
6015640,-0.13067635893821716,0.13049325346946716,0.8900153040885925,0.4168093800544739,-3.6406261920928955,1.6093755960464478,9.30859661102295
6020212,-0.13067635893821716,0.13049325346946716,0.8900153040885925,0.4168093800544739,-3.7539076805114746,1.6093755960464478,9.386722564697266
6024760,-0.13238534331321716,0.13226327300071716,0.8895880579948425,0.4166873097419739,-3.7539076805114746,1.6093755960464478,9.386722564697266
6029384,-0.13305673003196716,0.13250741362571716,0.8894659876823425,0.4165652394294739,-3.7539076805114746,1.6093755960464478,9.386722564697266
6033476,-0.13305673003196716,0.13250741362571716,0.8894659876823425,0.4165652394294739,-3.7539076805114746,1.4921879768371582,9.16015911102295
6038048,-0.13305673003196716,0.13250741362571716,0.8894659876823425,0.4165652394294739,-3.9062514305114746,1.5312505960464478,9.07812786102295
6042088,-0.13500985503196716,0.13269051909446716,0.8892828822135925,0.4163210988044739,-3.9062514305114746,1.5312505960464478,9.07812786102295
6046804,-0.13543711602687836,0.13262948393821716,0.8892828822135925,0.4161990284919739,-3.9062514305114746,1.5312505960464478,9.07812786102295
6050860,-0.13543711602687836,0.13262948393821716,0.8892828822135925,0.4161990284919739,-3.9453139305114746,2.9101572036743164,8.58203411102295
6054372,-0.13745127618312836,0.13232430815696716,0.8890997767448425,0.4160159230232239,-3.9453139305114746,2.9101572036743164,8.58203411102295
6058512,-0.13787852227687836,0.13214120268821716,0.8890997767448425,0.4160159230232239,-3.9453139305114746,2.9101572036743164,8.58203411102295
6062980,-0.13977061212062836,0.13146981596946716,0.8889777064323425,0.4158328175544739,-3.9453139305114746,2.9101572036743164,8.58203411102295
6066304,-0.13977061212062836,0.13146981596946716,0.8889777064323425,0.4158328175544739,-4.062501430511475,1.6093755960464478,7.734377861022949
6069856,-0.14019785821437836,0.13134774565696716,0.8889166712760925,0.4158328175544739,-4.062501430511475,1.6093755960464478,7.734377861022949
6074056,-0.14050303399562836,0.13128671050071716,0.8889166712760925,0.4157717823982239,-4.062501430511475,1.6093755960464478,7.734377861022949
6078300,-0.14050303399562836,0.13128671050071716,0.8889166712760925,0.4157717823982239,-3.9453139305114746,1.8789069652557373,8.77344036102295
6083568,-0.14129649102687836,0.13098153471946716,0.8889166712760925,0.4155276417732239,-3.9453139305114746,1.8789069652557373,8.77344036102295
6088124,-0.14129649102687836,0.13098153471946716,0.8889166712760925,0.4155276417732239,-3.7148451805114746,1.9921882152557373,9.26562786102295
6092680,-0.14270029962062836,0.12957772612571716,0.8891608119010925,0.4150393605232239,-3.7148451805114746,1.9921882152557373,9.26562786102295
6096832,-0.14270029962062836,0.12957772612571716,0.8891608119010925,0.4150393605232239,-2.9882822036743164,-0.07812502980232239,8.96094036102295
6101380,-0.14367686212062836,0.12817391753196716,0.8893439173698425,0.4147952198982239,-2.9882822036743164,-0.07812502980232239,8.96094036102295
6106096,-0.14447031915187836,0.12701424956321716,0.8892828822135925,0.4149172902107239,-2.9882822036743164,-0.07812502980232239,8.96094036102295
6110644,-0.14495860040187836,0.12738046050071716,0.8889777064323425,0.4152835011482239,-2.9882822036743164,-0.07812502980232239,8.96094036102295
6115060,-0.14495860040187836,0.12738046050071716,0.8889777064323425,0.4152835011482239,-5.363283157348633,3.4843761920928955,8.23828411102295
6119252,-0.14556895196437836,0.12817391753196716,0.8887335658073425,0.4153445363044739,-5.363283157348633,3.4843761920928955,8.23828411102295
6123800,-0.14556895196437836,0.12817391753196716,0.8887335658073425,0.4153445363044739,-3.3320324420928955,0.9570316076278687,9.343753814697266
6128724,-0.14556895196437836,0.12817391753196716,0.8887335658073425,0.4153445363044739,-3.3710949420928955,1.0742191076278687,9.609378814697266
6133144,-0.14556895196437836,0.12817391753196716,0.8887335658073425,0.4153445363044739,-3.8320326805114746,2.0703132152557373,8.88281536102295
6137900,-0.14740000665187836,0.12658700346946716,0.8887946009635925,0.4150393605232239,-3.8320326805114746,2.0703132152557373,8.88281536102295
