Timestamp,QI,QJ,QK,QR,AX,AY,AZ,GX,GY,GZ
2459128,0.0,0.0,0.0,0.0,-0.34375011920928955,0.11328128725290298,9.648441314697266,0.0,0.0,0.0
2463404,0.0,0.0,0.0,0.0,-0.26953133940696716,0.039062514901161194,9.730472564697266,0.0,0.0,0.0
2468048,0.0,0.0,0.0,0.0,-0.26953133940696716,0.07812502980232239,9.730472564697266,0.0,0.0,0.0
2473236,0.0,0.0,0.0,0.0,-0.26953133940696716,0.07812502980232239,9.730472564697266,0.0,0.0,0.0
2479700,0.0,0.0,0.0,0.0,-0.23046883940696716,0.07812502980232239,9.687503814697266,0.0,0.0,0.0
2485864,0.0,0.0,0.0,0.0,-0.19140632450580597,0.039062514901161194,9.687503814697266,0.0,0.0,0.0
2491892,0.0,0.0,0.0,0.0,-0.30468761920928955,0.07812502980232239,9.613285064697266,0.0,0.0,0.0
2497356,0.0,0.0,0.0,0.0,-0.34375011920928955,0.11328128725290298,9.609378814697266,0.0,0.0,0.0
2502800,0.0,0.0,0.0,0.0,-0.26953133940696716,0.07812502980232239,9.609378814697266,0.0,0.0,0.0
2508632,0.0,0.0,0.0,0.0,-0.19140632450580597,0.039062514901161194,9.687503814697266,0.0,0.0,0.0
2513284,0.0,0.0,0.0,0.0,-0.15234380960464478,0.0,9.730472564697266,0.0,0.0,0.0
2519756,0.0,0.0,0.0,0.0,-0.15234380960464478,0.0,9.730472564697266,0.001953126396983862,-0.009765632450580597,0.007812505587935448
2526296,0.0,0.0,0.0,0.0,-0.23046883940696716,0.07812502980232239,9.578128814697266,0.001953126396983862,-0.009765632450580597,0.007812505587935448
2530968,0.0,0.0,0.0,0.0,-0.26953133940696716,0.039062514901161194,9.609378814697266,0.001953126396983862,-0.009765632450580597,0.007812505587935448
2535732,0.0,0.0,0.0,0.0,-0.26953133940696716,0.039062514901161194,9.609378814697266,0.03515627607703209,0.08203130960464478,0.0
2540480,0.0,0.0,0.0,0.0,-0.30468761920928955,0.07812502980232239,9.613285064697266,0.03515627607703209,0.08203130960464478,0.0
2545824,0.0,0.0,0.0,0.0,-0.30468761920928955,0.15234380960464478,9.578128814697266,0.03515627607703209,0.08203130960464478,0.0
2551056,0.0,0.0,0.0,0.0,-0.34375011920928955,0.11328128725290298,9.691410064697266,0.03515627607703209,0.08203130960464478,0.0
2555800,0.0,0.0,0.0,0.0,-0.34375011920928955,0.11328128725290298,9.691410064697266,0.050781287252902985,0.10351569950580597,-0.001953126396983862
2561404,0.0,0.0,0.0,0.0,-0.42187514901161194,0.15234380960464478,9.652347564697266,0.050781287252902985,0.10351569950580597,-0.001953126396983862
2566912,0.0,0.0,0.0,0.0,-0.42187514901161194,0.15234380960464478,9.652347564697266,0.025390643626451492,0.06640629470348358,0.0
2571600,0.0,0.0,0.0,0.0,-0.42187514901161194,0.15234380960464478,9.613285064697266,0.025390643626451492,0.06640629470348358,0.0
2576356,0.0,0.0,0.0,0.0,-0.42187514901161194,0.15234380960464478,9.613285064697266,0.005859379190951586,0.017578138038516045,0.0
2581016,0.0,0.0,0.0,0.0,-0.38281264901161194,0.11328128725290298,9.609378814697266,0.005859379190951586,0.017578138038516045,0.0
2585916,0.0,0.0,0.0,0.0,-0.38281264901161194,0.11328128725290298,9.609378814697266,-0.015625011175870895,-0.025390643626451492,0.0
2591156,0.0,0.0,0.0,0.0,-0.38281264901161194,0.15234380960464478,9.609378814697266,-0.015625011175870895,-0.025390643626451492,0.0
2595908,0.0,0.0,0.0,0.0,-0.38281264901161194,0.15234380960464478,9.609378814697266,-0.023437516763806343,-0.052734412252902985,0.0
2601292,0.0,0.0,0.0,0.0,-0.30468761920928955,0.11328128725290298,9.687503814697266,-0.023437516763806343,-0.052734412252902985,0.0
2606976,0.0,0.0,0.0,0.0,-0.30468761920928955,0.11328128725290298,9.687503814697266,-0.03515627607703209,-0.07031255215406418,0.0
2611640,0.0,0.0,0.0,0.0,-0.26953133940696716,0.11328128725290298,9.648441314697266,-0.03515627607703209,-0.07031255215406418,0.0
2617284,0.0,0.0,0.0,0.0,-0.26953133940696716,0.11328128725290298,9.648441314697266,-0.027343768626451492,-0.06835942715406418,-0.001953126396983862
2621932,0.0,0.0,0.0,0.0,-0.23046883940696716,0.07812502980232239,9.613285064697266,-0.027343768626451492,-0.06835942715406418,-0.001953126396983862
2627260,0.0,0.0,0.0,0.0,-0.23046883940696716,0.07812502980232239,9.613285064697266,-0.017578138038516045,-0.044921908527612686,0.0
2631664,0.0,0.0,0.0,0.0,-0.23046883940696716,0.039062514901161194,9.539066314697266,-0.017578138038516045,-0.044921908527612686,0.0
2636984,0.0,0.0,0.0,0.0,-0.23046883940696716,0.039062514901161194,9.539066314697266,0.0,-0.003906252793967724,0.0
2642204,0.0,0.0,0.0,0.0,-0.26953133940696716,0.039062514901161194,9.609378814697266,0.0,-0.003906252793967724,0.0
2647884,0.0,0.0,0.0,0.0,-0.26953133940696716,0.039062514901161194,9.609378814697266,0.013671884313225746,0.023437516763806343,-0.001953126396983862
2653772,0.0,0.0,0.0,0.0,-0.30468761920928955,0.15234380960464478,9.726566314697266,0.013671884313225746,0.023437516763806343,-0.001953126396983862
2659088,0.0025024432688951492,0.009033209644258022,6.103519990574569e-05,0.9999396800994873,-0.30468761920928955,0.15234380960464478,9.726566314697266,0.013671884313225746,0.023437516763806343,-0.001953126396983862
2664420,0.0025024432688951492,0.009033209644258022,6.103519990574569e-05,0.9999396800994873,-0.34375011920928955,0.07812502980232239,9.648441314697266,0.013671884313225746,0.023437516763806343,-0.001953126396983862
2670076,0.0025024432688951492,0.009033209644258022,6.103519990574569e-05,0.9999396800994873,-0.34375011920928955,0.07812502980232239,9.609378814697266,0.013671884313225746,0.023437516763806343,-0.001953126396983862
2674828,0.0025024432688951492,0.009033209644258022,6.103519990574569e-05,0.9999396800994873,-0.34375011920928955,0.07812502980232239,9.609378814697266,-0.013671884313225746,-0.03125002235174179,0.0
2680252,0.0025024432688951492,0.009033209644258022,6.103519990574569e-05,0.9999396800994873,-0.26953133940696716,0.07812502980232239,9.609378814697266,-0.013671884313225746,-0.03125002235174179,0.0
2685968,0.0025024432688951492,0.009033209644258022,6.103519990574569e-05,0.9999396800994873,-0.26953133940696716,0.07812502980232239,9.609378814697266,-0.023437516763806343,-0.044921908527612686,-0.001953126396983862
2690656,0.0025024432688951492,0.009033209644258022,6.103519990574569e-05,0.9999396800994873,-0.15234380960464478,0.07812502980232239,9.609378814697266,-0.023437516763806343,-0.044921908527612686,-0.001953126396983862
2696552,0.0025024432688951492,0.009033209644258022,6.103519990574569e-05,0.9999396800994873,-0.15234380960464478,0.07812502980232239,9.609378814697266,0.0,0.007812505587935448,0.001953126396983862
2701412,0.0025024432688951492,0.009033209644258022,6.103519990574569e-05,0.9999396800994873,-0.19140632450580597,0.07812502980232239,9.539066314697266,0.0,0.007812505587935448,0.001953126396983862
2707200,0.0025024432688951492,0.009033209644258022,6.103519990574569e-05,0.9999396800994873,-0.19140632450580597,0.07812502980232239,9.539066314697266,0.023437516763806343,0.06640629470348358,-0.001953126396983862
2711524,0.0025024432688951492,0.009033209644258022,6.103519990574569e-05,0.9999396800994873,-0.30468761920928955,0.07812502980232239,9.613285064697266,0.023437516763806343,0.06640629470348358,-0.001953126396983862
2716408,0.0025024432688951492,0.009033209644258022,6.103519990574569e-05,0.9999396800994873,-0.30468761920928955,0.07812502980232239,9.613285064697266,0.03320314735174179,0.08007818460464478,0.0
2721108,0.0025024432688951492,0.009033209644258022,6.103519990574569e-05,0.9999396800994873,-0.5351564288139343,0.26953133940696716,9.648441314697266,0.03320314735174179,0.08007818460464478,0.0
2726432,0.0025024432688951492,0.009033209644258022,6.103519990574569e-05,0.9999396800994873,-0.5351564288139343,0.26953133940696716,9.648441314697266,0.03710940107703209,0.054687537252902985,0.0
2731116,0.0025024432688951492,0.009033209644258022,6.103519990574569e-05,0.9999396800994873,-0.38281264901161194,0.11328128725290298,9.648441314697266,0.03710940107703209,0.054687537252902985,0.0
2736852,0.0025024432688951492,0.009033209644258022,6.103519990574569e-05,0.9999396800994873,-0.38281264901161194,0.11328128725290298,9.648441314697266,-0.013671884313225746,-0.03515627607703209,0.0
2743056,0.0025024432688951492,0.009033209644258022,6.103519990574569e-05,0.9999396800994873,-0.30468761920928955,0.07812502980232239,9.652347564697266,-0.013671884313225746,-0.03515627607703209,0.0
2748332,0.0025024432688951492,0.009033209644258022,6.103519990574569e-05,0.9999396800994873,-0.19140632450580597,0.039062514901161194,9.652347564697266,-0.013671884313225746,-0.03515627607703209,0.0
2753664,0.0025024432688951492,0.009033209644258022,6.103519990574569e-05,0.9999396800994873,-0.19140632450580597,0.07812502980232239,9.613285064697266,-0.013671884313225746,-0.03515627607703209,0.0
2759288,0.0025024432688951492,0.009033209644258022,6.103519990574569e-05,0.9999396800994873,-0.26953133940696716,0.039062514901161194,9.542972564697266,-0.013671884313225746,-0.03515627607703209,0.0
2764644,0.0025024432688951492,0.009033209644258022,6.103519990574569e-05,0.9999396800994873,-0.26953133940696716,0.039062514901161194,9.542972564697266,-0.021484389901161194,-0.046875033527612686,-0.007812505587935448
2769332,0.0025024432688951492,0.009033209644258022,6.103519990574569e-05,0.9999396800994873,-0.34375011920928955,0.23046883940696716,9.652347564697266,-0.021484389901161194,-0.046875033527612686,-0.007812505587935448
2774092,0.0025024432688951492,0.009033209644258022,6.103519990574569e-05,0.9999396800994873,-0.34375011920928955,0.23046883940696716,9.652347564697266,0.017578138038516045,0.025390643626451492,-0.021484389901161194
2778764,0.0025024432688951492,0.009033209644258022,6.103519990574569e-05,0.9999396800994873,-0.42187514901161194,0.11328128725290298,9.613285064697266,0.017578138038516045,0.025390643626451492,-0.021484389901161194
2784512,0.0025024432688951492,0.009033209644258022,6.103519990574569e-05,0.9999396800994873,-0.42187514901161194,0.11328128725290298,9.613285064697266,0.02929689548909664,0.07031255215406418,-0.03906252980232239
2789220,0.0025024432688951492,0.009033209644258022,6.103519990574569e-05,0.9999396800994873,-0.4609376788139343,0.11328128725290298,9.609378814697266,0.02929689548909664,0.07031255215406418,-0.03906252980232239
2793972,0.0025024432688951492,0.009033209644258022,6.103519990574569e-05,0.9999396800994873,-0.4609376788139343,0.11328128725290298,9.609378814697266,0.015625011175870895,0.054687537252902985,-0.046875033527612686
2799588,0.0025024432688951492,0.009033209644258022,6.103519990574569e-05,0.9999396800994873,-0.4960939288139343,0.11328128725290298,9.609378814697266,0.015625011175870895,0.054687537252902985,-0.046875033527612686
2805368,0.0025024432688951492,0.009033209644258022,6.103519990574569e-05,0.9999396800994873,-0.4960939288139343,0.11328128725290298,9.609378814697266,0.003906252793967724,0.005859379190951586,-0.048828158527612686
2810148,0.0025024432688951492,0.009033209644258022,6.103519990574569e-05,0.9999396800994873,-0.42187514901161194,0.23046883940696716,9.648441314697266,0.003906252793967724,0.005859379190951586,-0.048828158527612686
2814968,0.0025024432688951492,0.009033209644258022,6.103519990574569e-05,0.9999396800994873,-0.42187514901161194,0.23046883940696716,9.648441314697266,-0.017578138038516045,-0.02929689548909664,-0.054687537252902985
2819644,0.0025024432688951492,0.009033209644258022,6.103519990574569e-05,0.9999396800994873,-0.07812502980232239,-0.11328128725290298,9.765628814697266,-0.017578138038516045,-0.02929689548909664,-0.054687537252902985
2825336,0.0025024432688951492,0.009033209644258022,6.103519990574569e-05,0.9999396800994873,-0.07812502980232239,-0.11328128725290298,9.765628814697266,-0.023437516763806343,-0.048828158527612686,-0.06445316970348358
2829652,0.0025024432688951492,0.009033209644258022,6.103519990574569e-05,0.9999396800994873,0.19140632450580597,-0.15234380960464478,9.687503814697266,-0.023437516763806343,-0.048828158527612686,-0.06445316970348358
2835364,0.0025024432688951492,0.009033209644258022,6.103519990574569e-05,0.9999396800994873,0.19140632450580597,-0.15234380960464478,9.687503814697266,-0.048828158527612686,-0.09960944950580597,-0.044921908527612686
2840948,0.0025024432688951492,0.009033209644258022,6.103519990574569e-05,0.9999396800994873,-0.23046883940696716,0.07812502980232239,9.539066314697266,-0.048828158527612686,-0.09960944950580597,-0.044921908527612686
2846396,0.002014161553233862,0.007995611056685448,-0.0016479503829032183,0.9999396800994873,-0.23046883940696716,0.07812502980232239,9.539066314697266,-0.048828158527612686,-0.09960944950580597,-0.044921908527612686
2850712,0.002014161553233862,0.007995611056685448,-0.0016479503829032183,0.9999396800994873,-0.30468761920928955,0.11328128725290298,9.687503814697266,-0.048828158527612686,-0.09960944950580597,-0.044921908527612686
2856412,0.002014161553233862,0.007995611056685448,-0.0016479503829032183,0.9999396800994873,-0.30468761920928955,0.11328128725290298,9.687503814697266,-0.06054691970348358,-0.14257822930812836,0.005859379190951586
2861776,0.002014161553233862,0.007995611056685448,-0.0016479503829032183,0.9999396800994873,-0.23046883940696716,-0.039062514901161194,9.687503814697266,-0.06054691970348358,-0.14257822930812836,0.005859379190951586
2867120,0.002014161553233862,0.007995611056685448,-0.0016479503829032183,0.9999396800994873,-0.15234380960464478,0.0,9.582035064697266,-0.06054691970348358,-0.14257822930812836,0.005859379190951586
2871940,0.002014161553233862,0.007995611056685448,-0.0016479503829032183,0.9999396800994873,-0.15234380960464478,0.0,9.582035064697266,-0.05859379097819328,-0.14257822930812836,0.0
2876632,0.002014161553233862,0.007995611056685448,-0.0016479503829032183,0.9999396800994873,-0.19140632450580597,0.039062514901161194,9.652347564697266,-0.05859379097819328,-0.14257822930812836,0.0
2882068,0.002014161553233862,0.007995611056685448,-0.0016479503829032183,0.9999396800994873,-0.19140632450580597,0.07812502980232239,9.578128814697266,-0.05859379097819328,-0.14257822930812836,0.0
2887676,0.002014161553233862,0.007995611056685448,-0.0016479503829032183,0.9999396800994873,-0.19140632450580597,0.039062514901161194,9.652347564697266,-0.05859379097819328,-0.14257822930812836,0.0
2893020,0.002014161553233862,0.007995611056685448,-0.0016479503829032183,0.9999396800994873,-0.19140632450580597,0.039062514901161194,9.652347564697266,-0.046875033527612686,-0.10937507450580597,0.0
2898288,0.002014161553233862,0.007995611056685448,-0.0016479503829032183,0.9999396800994873,-0.19140632450580597,0.07812502980232239,9.578128814697266,-0.046875033527612686,-0.10937507450580597,0.0
2903104,0.002014161553233862,0.007995611056685448,-0.0016479503829032183,0.9999396800994873,-0.19140632450580597,0.07812502980232239,9.578128814697266,-0.04296877980232239,-0.11523445695638657,0.001953126396983862
2907792,0.002014161553233862,0.007995611056685448,-0.0016479503829032183,0.9999396800994873,-0.23046883940696716,0.039062514901161194,9.613285064697266,-0.04296877980232239,-0.11523445695638657,0.001953126396983862
2912556,0.002014161553233862,0.007995611056685448,-0.0016479503829032183,0.9999396800994873,-0.23046883940696716,0.039062514901161194,9.613285064697266,-0.05664066597819328,-0.13476571440696716,0.0
2917828,0.002014161553233862,0.007995611056685448,-0.0016479503829032183,0.9999396800994873,-0.19140632450580597,0.0,9.726566314697266,-0.05664066597819328,-0.13476571440696716,0.0
2923328,0.002014161553233862,0.007995611056685448,-0.0016479503829032183,0.9999396800994873,-0.19140632450580597,0.0,9.726566314697266,-0.048828158527612686,-0.13671885430812836,0.001953126396983862
2928572,0.002014161553233862,0.007995611056685448,-0.0016479503829032183,0.9999396800994873,-0.19140632450580597,0.0,9.687503814697266,-0.048828158527612686,-0.13671885430812836,0.001953126396983862
2933924,0.002014161553233862,0.007995611056685448,-0.0016479503829032183,0.9999396800994873,-0.19140632450580597,0.0,9.687503814697266,-0.05859379097819328,-0.16406261920928955,0.0
2939716,0.002014161553233862,0.007995611056685448,-0.0016479503829032183,0.9999396800994873,-0.11328128725290298,0.07812502980232239,9.542972564697266,-0.05859379097819328,-0.16406261920928955,0.0
2945056,-0.0006103520281612873,0.0014038096414878964,-0.0015869152266532183,1.0000007152557373,-0.11328128725290298,0.07812502980232239,9.542972564697266,-0.05859379097819328,-0.16406261920928955,0.0
2950404,-0.0006103520281612873,0.0014038096414878964,-0.0015869152266532183,1.0000007152557373,0.039062514901161194,-0.07812502980232239,9.464847564697266,-0.05859379097819328,-0.16406261920928955,0.0
2955100,-0.0006103520281612873,0.0014038096414878964,-0.0015869152266532183,1.0000007152557373,-0.07812502980232239,-0.039062514901161194,9.542972564697266,-0.05859379097819328,-0.16406261920928955,0.0
2961120,-0.0006103520281612873,0.0014038096414878964,-0.0015869152266532183,1.0000007152557373,-0.15234380960464478,0.07812502980232239,9.582035064697266,-0.05859379097819328,-0.16406261920928955,0.0
2966368,-0.0006103520281612873,0.0014038096414878964,-0.0015869152266532183,1.0000007152557373,-0.15234380960464478,0.07812502980232239,9.648441314697266,-0.05859379097819328,-0.16406261920928955,0.0
2971128,-0.0006103520281612873,0.0014038096414878964,-0.0015869152266532183,1.0000007152557373,-0.15234380960464478,0.07812502980232239,9.648441314697266,-0.009765632450580597,-0.007812505587935448,0.001953126396983862
2976404,-0.0006103520281612873,0.0014038096414878964,-0.0015869152266532183,1.0000007152557373,-0.23046883940696716,0.07812502980232239,9.687503814697266,-0.009765632450580597,-0.007812505587935448,0.001953126396983862
2983240,-0.0006103520281612873,0.0014038096414878964,-0.0015869152266532183,1.0000007152557373,-0.26953133940696716,0.039062514901161194,9.765628814697266,-0.009765632450580597,-0.007812505587935448,0.001953126396983862
2988028,-0.0006103520281612873,0.0014038096414878964,-0.0015869152266532183,1.0000007152557373,-0.11328128725290298,0.0,9.804691314697266,-0.009765632450580597,-0.007812505587935448,0.001953126396983862
2993412,-0.0006103520281612873,0.0014038096414878964,-0.0015869152266532183,1.0000007152557373,-0.11328128725290298,0.0,9.804691314697266,-0.03515627607703209,-0.10156257450580597,0.0
2998088,-0.0006103520281612873,0.0014038096414878964,-0.0015869152266532183,1.0000007152557373,0.039062514901161194,0.039062514901161194,9.542972564697266,-0.03515627607703209,-0.10156257450580597,0.0
3003560,-0.0006103520281612873,0.0014038096414878964,-0.0015869152266532183,1.0000007152557373,0.039062514901161194,0.039062514901161194,9.542972564697266,-0.04101565480232239,-0.11328133195638657,0.0
3008224,-0.0006103520281612873,0.0014038096414878964,-0.0015869152266532183,1.0000007152557373,0.0,-0.07812502980232239,9.503910064697266,-0.04101565480232239,-0.11328133195638657,0.0
3013548,-0.0006103520281612873,0.0014038096414878964,-0.0015869152266532183,1.0000007152557373,0.0,-0.07812502980232239,9.503910064697266,-0.027343768626451492,-0.054687537252902985,0.0
3019748,-0.0006103520281612873,0.0014038096414878964,-0.0015869152266532183,1.0000007152557373,-0.039062514901161194,-0.039062514901161194,9.503910064697266,-0.027343768626451492,-0.054687537252902985,0.0
3024432,-0.0006103520281612873,0.0014038096414878964,-0.0015869152266532183,1.0000007152557373,-0.039062514901161194,0.0,9.648441314697266,-0.027343768626451492,-0.054687537252902985,0.0
3029764,-0.0006103520281612873,0.0014038096414878964,-0.0015869152266532183,1.0000007152557373,-0.11328128725290298,0.07812502980232239,9.648441314697266,-0.027343768626451492,-0.054687537252902985,0.0
3034540,-0.0006103520281612873,0.0014038096414878964,-0.0015869152266532183,1.0000007152557373,-0.23046883940696716,0.0,9.613285064697266,-0.027343768626451492,-0.054687537252902985,0.0
3040564,-0.0006103520281612873,0.0014038096414878964,-0.0015869152266532183,1.0000007152557373,-0.19140632450580597,0.039062514901161194,9.726566314697266,-0.027343768626451492,-0.054687537252902985,0.0
3045948,-0.0006103520281612873,0.0014038096414878964,-0.0015869152266532183,1.0000007152557373,-0.15234380960464478,0.039062514901161194,9.765628814697266,-0.027343768626451492,-0.054687537252902985,0.0
3051428,-0.0006103520281612873,0.0014038096414878964,-0.0015869152266532183,1.0000007152557373,-0.15234380960464478,0.039062514901161194,9.765628814697266,-0.015625011175870895,-0.04296877980232239,0.0
3056224,-0.0006103520281612873,0.0014038096414878964,-0.0015869152266532183,1.0000007152557373,-0.15234380960464478,0.0,9.582035064697266,-0.015625011175870895,-0.04296877980232239,0.0
3063136,-0.0006103520281612873,0.0014038096414878964,-0.0015869152266532183,1.0000007152557373,-0.039062514901161194,0.19140632450580597,9.539066314697266,-0.015625011175870895,-0.04296877980232239,0.0
3067880,-0.0006103520281612873,0.0014038096414878964,-0.0015869152266532183,1.0000007152557373,-0.039062514901161194,-0.19140632450580597,9.578128814697266,-0.015625011175870895,-0.04296877980232239,0.0
3073212,-0.0006103520281612873,0.0014038096414878964,-0.0015869152266532183,1.0000007152557373,-0.039062514901161194,-0.19140632450580597,9.578128814697266,-0.023437516763806343,-0.03320314735174179,0.0
3077980,-0.0006103520281612873,0.0014038096414878964,-0.0015869152266532183,1.0000007152557373,-0.11328128725290298,-0.039062514901161194,9.691410064697266,-0.023437516763806343,-0.03320314735174179,0.0
3083352,-0.0006103520281612873,0.0014038096414878964,-0.0015869152266532183,1.0000007152557373,-0.11328128725290298,-0.039062514901161194,9.691410064697266,-0.003906252793967724,0.013671884313225746,0.001953126396983862
3087676,-0.0006103520281612873,0.0014038096414878964,-0.0015869152266532183,1.0000007152557373,-0.07812502980232239,-0.039062514901161194,9.609378814697266,-0.003906252793967724,0.013671884313225746,0.001953126396983862
3093000,-0.0006103520281612873,0.0014038096414878964,-0.0015869152266532183,1.0000007152557373,-0.07812502980232239,-0.039062514901161194,9.609378814697266,-0.001953126396983862,0.001953126396983862,0.001953126396983862
3098832,-0.0006103520281612873,0.0014038096414878964,-0.0015869152266532183,1.0000007152557373,-0.07812502980232239,-0.039062514901161194,9.730472564697266,-0.001953126396983862,0.001953126396983862,0.001953126396983862
3104556,-0.0017089855391532183,-0.0011596687836572528,-0.0015258799539878964,1.0000007152557373,-0.07812502980232239,-0.039062514901161194,9.730472564697266,-0.001953126396983862,0.001953126396983862,0.001953126396983862
3109312,-0.0017089855391532183,-0.0011596687836572528,-0.0015258799539878964,1.0000007152557373,-0.07812502980232239,-0.039062514901161194,9.730472564697266,-0.007812505587935448,-0.013671884313225746,-0.001953126396983862
3114580,-0.0017089855391532183,-0.0011596687836572528,-0.0015258799539878964,1.0000007152557373,-0.039062514901161194,0.039062514901161194,9.609378814697266,-0.007812505587935448,-0.013671884313225746,-0.001953126396983862
3120328,-0.0017089855391532183,-0.0011596687836572528,-0.0015258799539878964,1.0000007152557373,-0.039062514901161194,0.039062514901161194,9.609378814697266,-0.007812505587935448,-0.03320314735174179,0.0
3125008,-0.0017089855391532183,-0.0011596687836572528,-0.0015258799539878964,1.0000007152557373,0.039062514901161194,0.039062514901161194,9.582035064697266,-0.007812505587935448,-0.03320314735174179,0.0
3129776,-0.0017089855391532183,-0.0011596687836572528,-0.0015258799539878964,1.0000007152557373,0.039062514901161194,0.039062514901161194,9.582035064697266,-0.021484389901161194,-0.02929689548909664,0.0
3134492,-0.0017089855391532183,-0.0011596687836572528,-0.0015258799539878964,1.0000007152557373,-0.07812502980232239,-0.11328128725290298,9.542972564697266,-0.021484389901161194,-0.02929689548909664,0.0
3139328,-0.0017089855391532183,-0.0011596687836572528,-0.0015258799539878964,1.0000007152557373,-0.07812502980232239,-0.11328128725290298,9.542972564697266,-0.001953126396983862,0.001953126396983862,0.0
3144584,-0.0017089855391532183,-0.0011596687836572528,-0.0015258799539878964,1.0000007152557373,-0.11328128725290298,0.11328128725290298,9.691410064697266,-0.001953126396983862,0.001953126396983862,0.0
3149364,-0.0017089855391532183,-0.0011596687836572528,-0.0015258799539878964,1.0000007152557373,-0.11328128725290298,0.11328128725290298,9.691410064697266,0.007812505587935448,0.009765632450580597,0.0
3154696,-0.0017089855391532183,-0.0011596687836572528,-0.0015258799539878964,1.0000007152557373,0.0,-0.07812502980232239,9.542972564697266,0.007812505587935448,0.009765632450580597,0.0
3160392,-0.0017089855391532183,-0.0011596687836572528,-0.0015258799539878964,1.0000007152557373,0.0,-0.07812502980232239,9.542972564697266,-0.007812505587935448,0.005859379190951586,-0.001953126396983862
3165108,-0.0017089855391532183,-0.0011596687836572528,-0.0015258799539878964,1.0000007152557373,-0.039062514901161194,0.039062514901161194,9.691410064697266,-0.007812505587935448,0.005859379190951586,-0.001953126396983862
3170104,-0.0017089855391532183,-0.0011596687836572528,-0.0015258799539878964,1.0000007152557373,-0.039062514901161194,0.039062514901161194,9.691410064697266,0.001953126396983862,0.0,0.0
3174848,-0.0017089855391532183,-0.0011596687836572528,-0.0015258799539878964,1.0000007152557373,-0.11328128725290298,-0.039062514901161194,9.609378814697266,0.001953126396983862,0.0,0.0
3179836,-0.0017089855391532183,-0.0011596687836572528,-0.0015258799539878964,1.0000007152557373,-0.11328128725290298,-0.039062514901161194,9.609378814697266,-0.001953126396983862,-0.001953126396983862,0.0
3184548,-0.0017089855391532183,-0.0011596687836572528,-0.0015258799539878964,1.0000007152557373,-0.039062514901161194,0.0,9.691410064697266,-0.001953126396983862,-0.001953126396983862,0.0
3189288,-0.0017089855391532183,-0.0011596687836572528,-0.0015258799539878964,1.0000007152557373,-0.039062514901161194,0.0,9.691410064697266,0.001953126396983862,0.001953126396983862,0.001953126396983862
3194904,-0.0017089855391532183,-0.0011596687836572528,-0.0015258799539878964,1.0000007152557373,-0.039062514901161194,0.0,9.648441314697266,0.001953126396983862,0.001953126396983862,0.001953126396983862
3201228,-0.0017089855391532183,-0.0011596687836572528,-0.0015258799539878964,1.0000007152557373,-0.039062514901161194,0.0,9.648441314697266,0.0,0.011718758381903172,-0.001953126396983862
3205564,-0.0017089855391532183,-0.0011596687836572528,-0.0015258799539878964,1.0000007152557373,-0.039062514901161194,-0.039062514901161194,9.609378814697266,0.0,0.011718758381903172,-0.001953126396983862
3210332,-0.0017089855391532183,-0.0011596687836572528,-0.0015258799539878964,1.0000007152557373,-0.039062514901161194,-0.039062514901161194,9.609378814697266,-0.001953126396983862,0.013671884313225746,0.0
3215016,-0.0017089855391532183,-0.0011596687836572528,-0.0015258799539878964,1.0000007152557373,-0.11328128725290298,0.039062514901161194,9.542972564697266,-0.001953126396983862,0.013671884313225746,0.0
3220344,-0.0017089855391532183,-0.0011596687836572528,-0.0015258799539878964,1.0000007152557373,-0.11328128725290298,0.039062514901161194,9.542972564697266,0.0,0.005859379190951586,0.0
3225032,-0.0017089855391532183,-0.0011596687836572528,-0.0015258799539878964,1.0000007152557373,-0.11328128725290298,0.0,9.609378814697266,0.0,0.005859379190951586,0.0
3229788,-0.0017089855391532183,-0.0011596687836572528,-0.0015258799539878964,1.0000007152557373,-0.11328128725290298,0.0,9.609378814697266,-0.007812505587935448,0.003906252793967724,0.0
3234448,-0.0017089855391532183,-0.0011596687836572528,-0.0015258799539878964,1.0000007152557373,-0.07812502980232239,0.039062514901161194,9.648441314697266,-0.007812505587935448,0.003906252793967724,0.0
3239824,-0.0017089855391532183,-0.0011596687836572528,-0.0015258799539878964,1.0000007152557373,-0.07812502980232239,0.039062514901161194,9.648441314697266,-0.009765632450580597,-0.005859379190951586,0.003906252793967724
3244508,-0.0017089855391532183,-0.0011596687836572528,-0.0015258799539878964,1.0000007152557373,-0.07812502980232239,-0.07812502980232239,9.582035064697266,-0.009765632450580597,-0.005859379190951586,0.003906252793967724
3249852,-0.0017089855391532183,-0.0011596687836572528,-0.0015258799539878964,1.0000007152557373,-0.07812502980232239,-0.07812502980232239,9.582035064697266,-0.021484389901161194,-0.015625011175870895,0.001953126396983862
3255140,-0.0017089855391532183,-0.0011596687836572528,-0.0015258799539878964,1.0000007152557373,-0.039062514901161194,-0.11328128725290298,9.691410064697266,-0.021484389901161194,-0.015625011175870895,0.001953126396983862
3260464,-0.0017089855391532183,-0.0011596687836572528,-0.0015258799539878964,1.0000007152557373,-0.039062514901161194,-0.11328128725290298,9.691410064697266,0.0,0.013671884313225746,0.0
3264776,-0.0017089855391532183,-0.0011596687836572528,-0.0015258799539878964,1.0000007152557373,-0.11328128725290298,-0.07812502980232239,9.691410064697266,0.0,0.013671884313225746,0.0
3270156,-0.0017089855391532183,-0.0011596687836572528,-0.0015258799539878964,1.0000007152557373,-0.11328128725290298,-0.07812502980232239,9.691410064697266,0.003906252793967724,0.03125002235174179,0.0
3274852,-0.0017089855391532183,-0.0011596687836572528,-0.0015258799539878964,1.0000007152557373,-0.11328128725290298,-0.11328128725290298,9.648441314697266,0.003906252793967724,0.03125002235174179,0.0
3280724,-0.0017089855391532183,-0.0011596687836572528,-0.0015258799539878964,1.0000007152557373,-0.11328128725290298,-0.11328128725290298,9.648441314697266,0.0,0.019531264901161194,-0.001953126396983862
3285628,-0.0017089855391532183,-0.0011596687836572528,-0.0015258799539878964,1.0000007152557373,-0.11328128725290298,0.039062514901161194,9.730472564697266,0.0,0.019531264901161194,-0.001953126396983862
3291444,-0.0017089855391532183,-0.0011596687836572528,-0.0015258799539878964,1.0000007152557373,-0.11328128725290298,0.039062514901161194,9.730472564697266,0.001953126396983862,0.009765632450580597,-0.001953126396983862
3297128,-0.0017089855391532183,-0.0011596687836572528,-0.0015258799539878964,1.0000007152557373,-0.11328128725290298,0.0,9.691410064697266,0.001953126396983862,0.009765632450580597,-0.001953126396983862
3302752,-0.0017089855391532183,-0.0011596687836572528,-0.0015258799539878964,1.0000007152557373,-0.07812502980232239,-0.11328128725290298,9.609378814697266,0.001953126396983862,0.009765632450580597,-0.001953126396983862
3307692,-0.0017089855391532183,-0.0011596687836572528,-0.0015258799539878964,1.0000007152557373,-0.07812502980232239,-0.11328128725290298,9.609378814697266,-0.011718758381903172,-0.023437516763806343,-0.001953126396983862
3312388,-0.0017089855391532183,-0.0011596687836572528,-0.0015258799539878964,1.0000007152557373,-0.039062514901161194,0.0,9.582035064697266,-0.011718758381903172,-0.023437516763806343,-0.001953126396983862
3317204,-0.0017089855391532183,-0.0011596687836572528,-0.0015258799539878964,1.0000007152557373,-0.039062514901161194,0.0,9.582035064697266,-0.003906252793967724,-0.011718758381903172,0.0
3321904,-0.0017089855391532183,-0.0011596687836572528,-0.0015258799539878964,1.0000007152557373,-0.039062514901161194,-0.07812502980232239,9.691410064697266,-0.003906252793967724,-0.011718758381903172,0.0
3327512,-0.0017089855391532183,-0.0011596687836572528,-0.0015258799539878964,1.0000007152557373,-0.15234380960464478,0.0,9.691410064697266,-0.003906252793967724,-0.011718758381903172,0.0
3332764,-0.0017089855391532183,-0.0011596687836572528,-0.0015258799539878964,1.0000007152557373,-0.07812502980232239,0.07812502980232239,9.730472564697266,-0.003906252793967724,-0.011718758381903172,0.0
3339452,-0.0017089855391532183,-0.0011596687836572528,-0.0015258799539878964,1.0000007152557373,-0.07812502980232239,0.07812502980232239,9.730472564697266,0.001953126396983862,-0.007812505587935448,0.0
3344160,-0.0017089855391532183,-0.0011596687836572528,-0.0015258799539878964,1.0000007152557373,-0.07812502980232239,-0.11328128725290298,9.609378814697266,0.001953126396983862,-0.007812505587935448,0.0
3348924,-0.0017089855391532183,-0.0011596687836572528,-0.0015258799539878964,1.0000007152557373,-0.07812502980232239,-0.11328128725290298,9.609378814697266,-0.007812505587935448,-0.005859379190951586,0.001953126396983862
3353624,-0.0017089855391532183,-0.0011596687836572528,-0.0015258799539878964,1.0000007152557373,-0.15234380960464478,0.039062514901161194,9.582035064697266,-0.007812505587935448,-0.005859379190951586,0.001953126396983862
3358968,-0.0017089855391532183,-0.0011596687836572528,-0.0015258799539878964,1.0000007152557373,-0.15234380960464478,0.039062514901161194,9.582035064697266,0.001953126396983862,0.001953126396983862,0.001953126396983862
3363288,-0.0017089855391532183,-0.0011596687836572528,-0.0015258799539878964,1.0000007152557373,-0.07812502980232239,-0.039062514901161194,9.648441314697266,0.001953126396983862,0.001953126396983862,0.001953126396983862
3368064,-0.0017089855391532183,-0.0011596687836572528,-0.0015258799539878964,1.0000007152557373,-0.07812502980232239,-0.039062514901161194,9.648441314697266,-0.003906252793967724,-0.001953126396983862,-0.001953126396983862
3373336,-0.0017089855391532183,-0.0011596687836572528,-0.0015258799539878964,1.0000007152557373,-0.07812502980232239,-0.07812502980232239,9.609378814697266,-0.003906252793967724,-0.001953126396983862,-0.001953126396983862
3379032,-0.0017089855391532183,-0.0011596687836572528,-0.0015258799539878964,1.0000007152557373,-0.07812502980232239,-0.07812502980232239,9.609378814697266,-0.003906252793967724,-0.009765632450580597,0.0
3384080,-0.0017089855391532183,-0.0011596687836572528,-0.0015258799539878964,1.0000007152557373,-0.07812502980232239,0.0,9.609378814697266,-0.003906252793967724,-0.009765632450580597,0.0
3389400,-0.0017089855391532183,-0.0011596687836572528,-0.0015258799539878964,1.0000007152557373,-0.07812502980232239,0.0,9.609378814697266,0.0,-0.003906252793967724,0.0
3394080,-0.0017089855391532183,-0.0011596687836572528,-0.0015258799539878964,1.0000007152557373,-0.039062514901161194,-0.039062514901161194,9.691410064697266,0.0,-0.003906252793967724,0.0
3399780,-0.0017089855391532183,-0.0011596687836572528,-0.0015258799539878964,1.0000007152557373,-0.039062514901161194,-0.039062514901161194,9.691410064697266,-0.001953126396983862,-0.001953126396983862,0.0
3404112,-0.0017089855391532183,-0.0011596687836572528,-0.0015258799539878964,1.0000007152557373,-0.07812502980232239,-0.039062514901161194,9.582035064697266,-0.001953126396983862,-0.001953126396983862,0.0
3409472,-0.0017089855391532183,-0.0011596687836572528,-0.0015258799539878964,1.0000007152557373,-0.07812502980232239,-0.039062514901161194,9.582035064697266,0.003906252793967724,-0.001953126396983862,-0.001953126396983862
3414836,-0.0017089855391532183,-0.0011596687836572528,-0.0015258799539878964,1.0000007152557373,-0.07812502980232239,0.039062514901161194,9.648441314697266,0.003906252793967724,-0.001953126396983862,-0.001953126396983862
3419520,-0.0017089855391532183,-0.0011596687836572528,-0.0015258799539878964,1.0000007152557373,-0.11328128725290298,-0.039062514901161194,9.691410064697266,0.003906252793967724,-0.001953126396983862,-0.001953126396983862
3425564,-0.0017089855391532183,-0.0011596687836572528,-0.0015258799539878964,1.0000007152557373,-0.07812502980232239,-0.039062514901161194,9.648441314697266,0.003906252793967724,-0.001953126396983862,-0.001953126396983862
3430840,-0.0017089855391532183,-0.0011596687836572528,-0.0015258799539878964,1.0000007152557373,-0.11328128725290298,-0.039062514901161194,9.609378814697266,0.003906252793967724,-0.001953126396983862,-0.001953126396983862
3437468,-0.0017089855391532183,-0.0011596687836572528,-0.0015258799539878964,1.0000007152557373,-0.07812502980232239,-0.039062514901161194,9.609378814697266,0.003906252793967724,-0.001953126396983862,-0.001953126396983862
3442144,-0.0017089855391532183,-0.0011596687836572528,-0.0015258799539878964,1.0000007152557373,-0.07812502980232239,0.0,9.609378814697266,0.003906252793967724,-0.001953126396983862,-0.001953126396983862
3446928,-0.0017089855391532183,-0.0011596687836572528,-0.0015258799539878964,1.0000007152557373,-0.07812502980232239,0.0,9.609378814697266,0.001953126396983862,-0.011718758381903172,0.0
3452160,-0.0017089855391532183,-0.0011596687836572528,-0.0015258799539878964,1.0000007152557373,-0.039062514901161194,-0.11328128725290298,9.582035064697266,0.001953126396983862,-0.011718758381903172,0.0
3456932,-0.0017089855391532183,-0.0011596687836572528,-0.0015258799539878964,1.0000007152557373,-0.039062514901161194,-0.11328128725290298,9.582035064697266,0.003906252793967724,0.015625011175870895,0.0
3461600,-0.0017089855391532183,-0.0011596687836572528,-0.0015258799539878964,1.0000007152557373,-0.07812502980232239,0.039062514901161194,9.691410064697266,0.003906252793967724,0.015625011175870895,0.0
3467060,-0.0017089855391532183,-0.0011596687836572528,-0.0015258799539878964,1.0000007152557373,-0.07812502980232239,0.039062514901161194,9.691410064697266,0.011718758381903172,0.021484389901161194,0.001953126396983862
3472304,-0.0017089855391532183,-0.0011596687836572528,-0.0015258799539878964,1.0000007152557373,-0.07812502980232239,-0.07812502980232239,9.609378814697266,0.011718758381903172,0.021484389901161194,0.001953126396983862
3478080,-0.0017089855391532183,-0.0011596687836572528,-0.0015258799539878964,1.0000007152557373,-0.07812502980232239,-0.07812502980232239,9.609378814697266,0.003906252793967724,0.025390643626451492,-0.001953126396983862
3482788,-0.0017089855391532183,-0.0011596687836572528,-0.0015258799539878964,1.0000007152557373,-0.039062514901161194,0.0,9.609378814697266,0.003906252793967724,0.025390643626451492,-0.001953126396983862
3487548,-0.0017089855391532183,-0.0011596687836572528,-0.0015258799539878964,1.0000007152557373,-0.039062514901161194,0.0,9.609378814697266,0.011718758381903172,0.03125002235174179,0.001953126396983862
3492288,-0.0017089855391532183,-0.0011596687836572528,-0.0015258799539878964,1.0000007152557373,-0.039062514901161194,-0.07812502980232239,9.609378814697266,0.011718758381903172,0.03125002235174179,0.001953126396983862
3497676,-0.0017089855391532183,-0.0011596687836572528,-0.0015258799539878964,1.0000007152557373,-0.039062514901161194,-0.07812502980232239,9.609378814697266,0.007812505587935448,0.046875033527612686,0.0
3502392,-0.0017089855391532183,-0.0011596687836572528,-0.0015258799539878964,1.0000007152557373,-0.11328128725290298,0.0,9.609378814697266,0.007812505587935448,0.046875033527612686,0.0
3507156,-0.0017089855391532183,-0.0011596687836572528,-0.0015258799539878964,1.0000007152557373,-0.11328128725290298,0.0,9.609378814697266,0.009765632450580597,0.03906252980232239,0.0
3511904,-0.0017089855391532183,-0.0011596687836572528,-0.0015258799539878964,1.0000007152557373,-0.11328128725290298,0.0,9.582035064697266,0.009765632450580597,0.03906252980232239,0.0
3517224,-0.0017089855391532183,-0.0011596687836572528,-0.0015258799539878964,1.0000007152557373,-0.11328128725290298,0.0,9.582035064697266,0.009765632450580597,0.03515627607703209,0.0
3521888,-0.0017089855391532183,-0.0011596687836572528,-0.0015258799539878964,1.0000007152557373,-0.07812502980232239,0.0,9.691410064697266,0.009765632450580597,0.03515627607703209,0.0
3527728,-0.0017089855391532183,-0.0011596687836572528,-0.0015258799539878964,1.0000007152557373,-0.07812502980232239,0.0,9.691410064697266,0.011718758381903172,0.04296877980232239,-0.001953126396983862
3532980,-0.0017089855391532183,-0.0011596687836572528,-0.0015258799539878964,1.0000007152557373,-0.07812502980232239,-0.039062514901161194,9.648441314697266,0.011718758381903172,0.04296877980232239,-0.001953126396983862
3538340,-0.0013427743688225746,0.0011596687836572528,-0.0015258799539878964,1.0000007152557373,-0.07812502980232239,-0.039062514901161194,9.648441314697266,0.011718758381903172,0.04296877980232239,-0.001953126396983862
3542664,-0.0013427743688225746,0.0011596687836572528,-0.0015258799539878964,1.0000007152557373,-0.07812502980232239,-0.039062514901161194,9.648441314697266,0.011718758381903172,0.048828158527612686,-0.005859379190951586
3547468,-0.0012817392125725746,0.0014648447977378964,-0.0015258799539878964,1.0000007152557373,-0.07812502980232239,-0.039062514901161194,9.648441314697266,0.011718758381903172,0.048828158527612686,-0.005859379190951586
3553592,-0.0012817392125725746,0.0014648447977378964,-0.0015258799539878964,1.0000007152557373,-0.07812502980232239,0.0,9.648441314697266,0.011718758381903172,0.048828158527612686,-0.005859379190951586
3558952,-0.0012817392125725746,0.0014648447977378964,-0.0015258799539878964,1.0000007152557373,-0.07812502980232239,-0.07812502980232239,9.609378814697266,0.011718758381903172,0.048828158527612686,-0.005859379190951586
3563716,-0.0012817392125725746,0.0014648447977378964,-0.0015258799539878964,1.0000007152557373,-0.07812502980232239,-0.07812502980232239,9.609378814697266,0.007812505587935448,0.048828158527612686,-0.03320314735174179
3568980,-0.0012817392125725746,0.0014648447977378964,-0.0015258799539878964,1.0000007152557373,-0.07812502980232239,-0.039062514901161194,9.609378814697266,0.007812505587935448,0.048828158527612686,-0.03320314735174179
3574356,-0.0012817392125725746,0.0014648447977378964,-0.0015258799539878964,1.0000007152557373,-0.07812502980232239,-0.039062514901161194,9.609378814697266,0.021484389901161194,0.06640629470348358,-0.03515627607703209
3579060,-0.0012817392125725746,0.0014648447977378964,-0.0015258799539878964,1.0000007152557373,-0.07812502980232239,0.039062514901161194,9.648441314697266,0.021484389901161194,0.06640629470348358,-0.03515627607703209
3583844,-0.0012817392125725746,0.0014648447977378964,-0.0015258799539878964,1.0000007152557373,-0.07812502980232239,0.039062514901161194,9.648441314697266,0.027343768626451492,0.08789068460464478,-0.025390643626451492
3588528,-0.0012817392125725746,0.0014648447977378964,-0.0015258799539878964,1.0000007152557373,-0.23046883940696716,0.07812502980232239,9.687503814697266,0.027343768626451492,0.08789068460464478,-0.025390643626451492
3593432,-0.0012817392125725746,0.0014648447977378964,-0.0015258799539878964,1.0000007152557373,-0.23046883940696716,0.07812502980232239,9.687503814697266,0.03320314735174179,0.07812505960464478,-0.009765632450580597
3598672,-0.0012817392125725746,0.0014648447977378964,-0.0015258799539878964,1.0000007152557373,-0.11328128725290298,0.0,9.648441314697266,0.03320314735174179,0.07812505960464478,-0.009765632450580597
3603456,-0.0012817392125725746,0.0014648447977378964,-0.0015258799539878964,1.0000007152557373,-0.11328128725290298,0.0,9.648441314697266,0.011718758381903172,0.06250004470348358,-0.001953126396983862
3608700,-0.0012817392125725746,0.0014648447977378964,-0.0015258799539878964,1.0000007152557373,-0.19140632450580597,0.039062514901161194,9.652347564697266,0.011718758381903172,0.06250004470348358,-0.001953126396983862
3614760,-0.0012817392125725746,0.0014648447977378964,-0.0015258799539878964,1.0000007152557373,-0.19140632450580597,-0.039062514901161194,9.578128814697266,0.011718758381903172,0.06250004470348358,-0.001953126396983862
3619552,-0.0012817392125725746,0.0014648447977378964,-0.0015258799539878964,1.0000007152557373,-0.19140632450580597,0.039062514901161194,9.613285064697266,0.011718758381903172,0.06250004470348358,-0.001953126396983862
3624668,-0.0012817392125725746,0.0014648447977378964,-0.0015258799539878964,1.0000007152557373,-0.19140632450580597,0.039062514901161194,9.613285064697266,0.017578138038516045,0.03125002235174179,0.0
3629456,-0.0012817392125725746,0.0014648447977378964,-0.0015258799539878964,1.0000007152557373,-0.19140632450580597,0.0,9.769535064697266,0.017578138038516045,0.03125002235174179,0.0
3635056,-0.0012817392125725746,0.0014648447977378964,-0.0015258799539878964,1.0000007152557373,-0.23046883940696716,0.039062514901161194,9.687503814697266,0.017578138038516045,0.03125002235174179,0.0
3639732,-0.0012817392125725746,0.0014648447977378964,-0.0015258799539878964,1.0000007152557373,-0.23046883940696716,0.039062514901161194,9.726566314697266,0.017578138038516045,0.03125002235174179,0.0
3644564,-0.0012817392125725746,0.0014648447977378964,-0.0015258799539878964,1.0000007152557373,-0.23046883940696716,0.039062514901161194,9.726566314697266,-0.013671884313225746,-0.04296877980232239,0.0
3649872,-0.0012817392125725746,0.0014648447977378964,-0.0015258799539878964,1.0000007152557373,-0.07812502980232239,0.0,9.648441314697266,-0.013671884313225746,-0.04296877980232239,0.0
3655552,-0.0012817392125725746,0.0014648447977378964,-0.0015258799539878964,1.0000007152557373,-0.07812502980232239,0.0,9.648441314697266,-0.023437516763806343,-0.06445316970348358,0.0
3660228,-0.0012817392125725746,0.0014648447977378964,-0.0015258799539878964,1.0000007152557373,-0.07812502980232239,0.0,9.542972564697266,-0.023437516763806343,-0.06445316970348358,0.0
3665104,-0.0012817392125725746,0.0014648447977378964,-0.0015258799539878964,1.0000007152557373,-0.07812502980232239,0.0,9.542972564697266,-0.019531264901161194,-0.054687537252902985,-0.001953126396983862
3669816,-0.0012817392125725746,0.0014648447977378964,-0.0015258799539878964,1.0000007152557373,-0.07812502980232239,-0.039062514901161194,9.609378814697266,-0.019531264901161194,-0.054687537252902985,-0.001953126396983862
3674576,-0.0012817392125725746,0.0014648447977378964,-0.0015258799539878964,1.0000007152557373,-0.07812502980232239,-0.039062514901161194,9.609378814697266,-0.005859379190951586,-0.023437516763806343,-0.001953126396983862
3679288,-0.0012817392125725746,0.0014648447977378964,-0.0015258799539878964,1.0000007152557373,-0.039062514901161194,-0.039062514901161194,9.648441314697266,-0.005859379190951586,-0.023437516763806343,-0.001953126396983862
3684076,-0.0012817392125725746,0.0014648447977378964,-0.0015258799539878964,1.0000007152557373,-0.039062514901161194,-0.039062514901161194,9.648441314697266,0.007812505587935448,0.007812505587935448,0.0
3688784,-0.0012817392125725746,0.0014648447977378964,-0.0015258799539878964,1.0000007152557373,-0.15234380960464478,0.039062514901161194,9.691410064697266,0.007812505587935448,0.007812505587935448,0.0
3693836,-0.0012817392125725746,0.0014648447977378964,-0.0015258799539878964,1.0000007152557373,-0.15234380960464478,0.039062514901161194,9.691410064697266,0.007812505587935448,0.009765632450580597,0.001953126396983862
3699176,-0.0012817392125725746,0.0014648447977378964,-0.0015258799539878964,1.0000007152557373,-0.15234380960464478,-0.039062514901161194,9.609378814697266,0.007812505587935448,0.009765632450580597,0.001953126396983862
3704512,-0.0012817392125725746,0.0014648447977378964,-0.0015258799539878964,1.0000007152557373,-0.15234380960464478,-0.039062514901161194,9.609378814697266,-0.003906252793967724,0.001953126396983862,0.003906252793967724
3709272,-0.0012817392125725746,0.0014648447977378964,-0.0015258799539878964,1.0000007152557373,-0.15234380960464478,0.07812502980232239,9.582035064697266,-0.003906252793967724,0.001953126396983862,0.003906252793967724
3714632,-0.0012817392125725746,0.0014648447977378964,-0.0015258799539878964,1.0000007152557373,-0.15234380960464478,0.07812502980232239,9.582035064697266,0.001953126396983862,0.005859379190951586,0.001953126396983862
3719004,-0.0012817392125725746,0.0014648447977378964,-0.0015258799539878964,1.0000007152557373,-0.039062514901161194,0.11328128725290298,9.582035064697266,0.001953126396983862,0.005859379190951586,0.001953126396983862
3724356,-0.0012817392125725746,0.0014648447977378964,-0.0015258799539878964,1.0000007152557373,-0.039062514901161194,0.11328128725290298,9.582035064697266,0.005859379190951586,0.015625011175870895,0.005859379190951586
3729056,-0.0012817392125725746,0.0014648447977378964,-0.0015258799539878964,1.0000007152557373,-0.15234380960464478,0.039062514901161194,9.609378814697266,0.005859379190951586,0.015625011175870895,0.005859379190951586
3734752,-0.0012817392125725746,0.0014648447977378964,-0.0015258799539878964,1.0000007152557373,-0.15234380960464478,0.039062514901161194,9.609378814697266,0.011718758381903172,0.03515627607703209,0.003906252793967724
3739112,-0.0012817392125725746,0.0014648447977378964,-0.0015258799539878964,1.0000007152557373,-0.11328128725290298,0.039062514901161194,9.648441314697266,0.011718758381903172,0.03515627607703209,0.003906252793967724
3744824,-0.0012817392125725746,0.0014648447977378964,-0.0015258799539878964,1.0000007152557373,-0.11328128725290298,0.039062514901161194,9.648441314697266,0.015625011175870895,0.044921908527612686,0.0
3750748,-0.0012817392125725746,0.0014648447977378964,-0.0015258799539878964,1.0000007152557373,-0.15234380960464478,0.0,9.582035064697266,0.015625011175870895,0.044921908527612686,0.0
3756140,-0.00024414079962298274,0.004699710290879011,-0.002075196709483862,1.0000007152557373,-0.15234380960464478,0.0,9.582035064697266,0.015625011175870895,0.044921908527612686,0.0
3761656,-0.00024414079962298274,0.004699710290879011,-0.002075196709483862,1.0000007152557373,-0.15234380960464478,0.0,9.582035064697266,0.017578138038516045,0.04296877980232239,-0.001953126396983862
3766932,-0.00024414079962298274,0.004699710290879011,-0.002075196709483862,1.0000007152557373,-0.07812502980232239,0.0,9.609378814697266,0.017578138038516045,0.04296877980232239,-0.001953126396983862
3771692,-0.00024414079962298274,0.004699710290879011,-0.002075196709483862,1.0000007152557373,-0.07812502980232239,0.0,9.609378814697266,0.019531264901161194,0.052734412252902985,-0.001953126396983862
3776948,-0.00024414079962298274,0.004699710290879011,-0.002075196709483862,1.0000007152557373,-0.15234380960464478,-0.039062514901161194,9.648441314697266,0.019531264901161194,0.052734412252902985,-0.001953126396983862
3781772,-0.00024414079962298274,0.004699710290879011,-0.002075196709483862,1.0000007152557373,-0.15234380960464478,-0.039062514901161194,9.648441314697266,0.021484389901161194,0.052734412252902985,-0.001953126396983862
3787148,-0.00024414079962298274,0.004699710290879011,-0.002075196709483862,1.0000007152557373,-0.19140632450580597,0.039062514901161194,9.613285064697266,0.021484389901161194,0.052734412252902985,-0.001953126396983862
3792504,-0.00024414079962298274,0.004699710290879011,-0.002075196709483862,1.0000007152557373,-0.19140632450580597,0.039062514901161194,9.613285064697266,0.019531264901161194,0.050781287252902985,-0.001953126396983862
3797216,-0.00024414079962298274,0.004699710290879011,-0.002075196709483862,1.0000007152557373,-0.11328128725290298,-0.19140632450580597,9.652347564697266,0.019531264901161194,0.050781287252902985,-0.001953126396983862
3803192,-0.00024414079962298274,0.004699710290879011,-0.002075196709483862,1.0000007152557373,-0.11328128725290298,-0.19140632450580597,9.652347564697266,0.011718758381903172,0.048828158527612686,-0.007812505587935448
3807888,-0.00024414079962298274,0.004699710290879011,-0.002075196709483862,1.0000007152557373,-0.19140632450580597,0.11328128725290298,9.578128814697266,0.011718758381903172,0.048828158527612686,-0.007812505587935448
3813244,-0.00024414079962298274,0.004699710290879011,-0.002075196709483862,1.0000007152557373,-0.19140632450580597,0.11328128725290298,9.578128814697266,0.023437516763806343,0.050781287252902985,-0.017578138038516045
3817972,-0.00024414079962298274,0.004699710290879011,-0.002075196709483862,1.0000007152557373,-0.30468761920928955,0.34375011920928955,9.726566314697266,0.023437516763806343,0.050781287252902985,-0.017578138038516045
3823300,-0.00024414079962298274,0.004699710290879011,-0.002075196709483862,1.0000007152557373,-0.30468761920928955,0.34375011920928955,9.726566314697266,0.021484389901161194,0.017578138038516045,-0.015625011175870895
3828096,-0.00024414079962298274,0.004699710290879011,-0.002075196709483862,1.0000007152557373,-0.26953133940696716,0.039062514901161194,9.765628814697266,0.021484389901161194,0.017578138038516045,-0.015625011175870895
3834056,-0.00024414079962298274,0.004699710290879011,-0.002075196709483862,1.0000007152557373,-0.26953133940696716,0.039062514901161194,9.765628814697266,-0.005859379190951586,-0.03710940107703209,-0.005859379190951586
3838724,-0.00024414079962298274,0.004699710290879011,-0.002075196709483862,1.0000007152557373,-0.23046883940696716,0.07812502980232239,9.687503814697266,-0.005859379190951586,-0.03710940107703209,-0.005859379190951586
3844068,-0.00024414079962298274,0.004699710290879011,-0.002075196709483862,1.0000007152557373,-0.23046883940696716,0.07812502980232239,9.687503814697266,-0.021484389901161194,-0.09179694205522537,0.0
3848876,-0.00024414079962298274,0.004699710290879011,-0.002075196709483862,1.0000007152557373,-0.11328128725290298,0.0,9.648441314697266,-0.021484389901161194,-0.09179694205522537,0.0
3854264,-0.00024414079962298274,0.004699710290879011,-0.002075196709483862,1.0000007152557373,-0.11328128725290298,0.0,9.648441314697266,-0.027343768626451492,-0.11132820695638657,0.0
3858572,-0.00024414079962298274,0.004699710290879011,-0.002075196709483862,1.0000007152557373,-0.07812502980232239,0.0,9.464847564697266,-0.027343768626451492,-0.11132820695638657,0.0
3864260,-0.00024414079962298274,0.004699710290879011,-0.002075196709483862,1.0000007152557373,-0.07812502980232239,0.0,9.464847564697266,-0.015625011175870895,-0.08789068460464478,-0.003906252793967724
3869960,-0.00024414079962298274,0.004699710290879011,-0.002075196709483862,1.0000007152557373,-0.07812502980232239,0.039062514901161194,9.582035064697266,-0.015625011175870895,-0.08789068460464478,-0.003906252793967724
3875248,-0.00024414079962298274,0.004699710290879011,-0.002075196709483862,1.0000007152557373,-0.30468761920928955,0.38281264901161194,9.539066314697266,-0.015625011175870895,-0.08789068460464478,-0.003906252793967724
3880048,-0.00024414079962298274,0.004699710290879011,-0.002075196709483862,1.0000007152557373,-0.30468761920928955,0.38281264901161194,9.539066314697266,0.017578138038516045,-0.013671884313225746,-0.013671884313225746
3885328,-0.00024414079962298274,0.004699710290879011,-0.002075196709483862,1.0000007152557373,-0.5351564288139343,0.6523439884185791,9.691410064697266,0.017578138038516045,-0.013671884313225746,-0.013671884313225746
3890680,-0.00024414079962298274,0.004699710290879011,-0.002075196709483862,1.0000007152557373,-0.6132814884185791,0.6914064884185791,9.687503814697266,0.017578138038516045,-0.013671884313225746,-0.013671884313225746
3895360,-0.00024414079962298274,0.004699710290879011,-0.002075196709483862,1.0000007152557373,-0.8437502980232239,0.9570316076278687,9.421878814697266,0.017578138038516045,-0.013671884313225746,-0.013671884313225746
3900116,-0.00024414079962298274,0.004699710290879011,-0.002075196709483862,1.0000007152557373,-0.8437502980232239,0.9570316076278687,9.421878814697266,0.013671884313225746,0.021484389901161194,-0.14257822930812836
3904804,-0.00024414079962298274,0.004699710290879011,-0.002075196709483862,1.0000007152557373,-0.6132814884185791,0.8046877980232239,9.652347564697266,0.013671884313225746,0.021484389901161194,-0.14257822930812836
3910136,-0.00024414079962298274,0.004699710290879011,-0.002075196709483862,1.0000007152557373,-0.42187514901161194,0.6523439884185791,9.613285064697266,0.013671884313225746,0.021484389901161194,-0.14257822930812836
3914844,-0.00024414079962298274,0.004699710290879011,-0.002075196709483862,1.0000007152557373,-0.42187514901161194,0.38281264901161194,9.578128814697266,0.013671884313225746,0.021484389901161194,-0.14257822930812836
3919600,-0.00024414079962298274,0.004699710290879011,-0.002075196709483862,1.0000007152557373,-0.42187514901161194,0.38281264901161194,9.578128814697266,-0.005859379190951586,0.03515627607703209,-0.2617189288139343
3925224,-0.00024414079962298274,0.004699710290879011,-0.002075196709483862,1.0000007152557373,-0.26953133940696716,0.039062514901161194,9.648441314697266,-0.005859379190951586,0.03515627607703209,-0.2617189288139343
3930772,-0.00024414079962298274,0.004699710290879011,-0.002075196709483862,1.0000007152557373,-0.26953133940696716,0.039062514901161194,9.648441314697266,0.0,0.02929689548909664,-0.2812502086162567
3935476,-0.00024414079962298274,0.004699710290879011,-0.002075196709483862,1.0000007152557373,0.26953133940696716,-0.039062514901161194,9.847660064697266,0.0,0.02929689548909664,-0.2812502086162567
3940244,-0.00024414079962298274,0.004699710290879011,-0.002075196709483862,1.0000007152557373,0.26953133940696716,-0.039062514901161194,9.847660064697266,-0.003906252793967724,0.001953126396983862,-0.3027345836162567
3944968,-0.00024414079962298274,0.004699710290879011,-0.002075196709483862,1.0000007152557373,-0.11328128725290298,-0.15234380960464478,9.609378814697266,-0.003906252793967724,0.001953126396983862,-0.3027345836162567
3949728,-0.00024414079962298274,0.004699710290879011,-0.002075196709483862,1.0000007152557373,-0.11328128725290298,-0.15234380960464478,9.609378814697266,0.0,-0.003906252793967724,-0.3085939586162567
3954972,-0.00024414079962298274,0.004699710290879011,-0.002075196709483862,1.0000007152557373,0.26953133940696716,-0.4960939288139343,9.730472564697266,0.0,-0.003906252793967724,-0.3085939586162567
3959736,-0.00024414079962298274,0.004699710290879011,-0.002075196709483862,1.0000007152557373,0.26953133940696716,-0.4960939288139343,9.730472564697266,-0.021484389901161194,-0.007812505587935448,-0.2753908336162567
3964540,-0.00024414079962298274,0.004699710290879011,-0.002075196709483862,1.0000007152557373,0.34375011920928955,-0.7656252980232239,9.652347564697266,-0.021484389901161194,-0.007812505587935448,-0.2753908336162567
3970660,-0.00024414079962298274,0.004699710290879011,-0.002075196709483862,1.0000007152557373,0.34375011920928955,-0.7656252980232239,9.652347564697266,-0.023437516763806343,-0.019531264901161194,-0.19140638411045074
3975908,-0.00024414079962298274,0.004699710290879011,-0.002075196709483862,1.0000007152557373,0.42187514901161194,-0.6523439884185791,9.687503814697266,-0.023437516763806343,-0.019531264901161194,-0.19140638411045074
3980696,-0.00024414079962298274,0.004699710290879011,-0.002075196709483862,1.0000007152557373,0.42187514901161194,-0.6523439884185791,9.687503814697266,-0.017578138038516045,-0.07031255215406418,-0.09375006705522537
3985956,-0.00024414079962298274,0.004699710290879011,-0.002075196709483862,1.0000007152557373,-0.5351564288139343,-3.1406261920928955,8.12109661102295,-0.017578138038516045,-0.07031255215406418,-0.09375006705522537
3991284,-0.00024414079962298274,0.004699710290879011,-0.002075196709483862,1.0000007152557373,-0.5351564288139343,-3.1406261920928955,8.12109661102295,-0.009765632450580597,-0.15429697930812836,-0.009765632450580597
3995708,-0.00024414079962298274,0.004699710290879011,-0.002075196709483862,1.0000007152557373,-0.23046883940696716,0.38281264901161194,11.222660064697266,-0.009765632450580597,-0.15429697930812836,-0.009765632450580597
4001052,-0.00024414079962298274,0.004699710290879011,-0.002075196709483862,1.0000007152557373,-0.23046883940696716,0.38281264901161194,11.222660064697266,0.06445316970348358,0.025390643626451492,-0.003906252793967724
4005768,-0.00024414079962298274,0.004699710290879011,-0.002075196709483862,1.0000007152557373,-0.26953133940696716,0.4609376788139343,8.42187786102295,0.06445316970348358,0.025390643626451492,-0.003906252793967724
4011444,-0.00024414079962298274,0.004699710290879011,-0.002075196709483862,1.0000007152557373,-0.26953133940696716,0.4609376788139343,8.42187786102295,-0.05664066597819328,-0.08398443460464478,-0.001953126396983862
4015768,-0.00024414079962298274,0.004699710290879011,-0.002075196709483862,1.0000007152557373,-0.34375011920928955,0.4609376788139343,9.921878814697266,-0.05664066597819328,-0.08398443460464478,-0.001953126396983862
4021140,-0.00024414079962298274,0.004699710290879011,-0.002075196709483862,1.0000007152557373,-0.34375011920928955,0.4609376788139343,9.921878814697266,-0.015625011175870895,-0.09375006705522537,0.0
4027232,-0.00024414079962298274,0.004699710290879011,-0.002075196709483862,1.0000007152557373,-0.38281264901161194,-0.42187514901161194,9.22656536102295,-0.015625011175870895,-0.09375006705522537,0.0
4032488,-0.00024414079962298274,0.004699710290879011,-0.002075196709483862,1.0000007152557373,0.15234380960464478,0.42187514901161194,9.808597564697266,-0.015625011175870895,-0.09375006705522537,0.0
4037832,-0.00024414079962298274,0.004699710290879011,-0.002075196709483862,1.0000007152557373,-3.9843764305114746,0.15234380960464478,9.347660064697266,-0.015625011175870895,-0.09375006705522537,0.0
4043140,-0.00024414079962298274,0.004699710290879011,-0.002075196709483862,1.0000007152557373,-6.664064884185791,0.9570316076278687,9.03906536102295,-0.015625011175870895,-0.09375006705522537,0.0
4047900,-0.00024414079962298274,0.004699710290879011,-0.002075196709483862,1.0000007152557373,-6.664064884185791,0.9570316076278687,9.03906536102295,0.11523445695638657,0.10937507450580597,-0.2695314288139343
4053156,-0.00024414079962298274,0.004699710290879011,-0.002075196709483862,1.0000007152557373,-1.1484378576278687,0.4609376788139343,10.496097564697266,0.11523445695638657,0.10937507450580597,-0.2695314288139343
4058140,-0.00024414079962298274,0.004699710290879011,-0.002075196709483862,1.0000007152557373,-1.1484378576278687,0.4609376788139343,10.496097564697266,-0.052734412252902985,0.013671884313225746,-0.5625004172325134
4063380,-0.00024414079962298274,0.004699710290879011,-0.002075196709483862,1.0000007152557373,-0.42187514901161194,-0.4960939288139343,9.00000286102295,-0.052734412252902985,0.013671884313225746,-0.5625004172325134
4070004,-0.00024414079962298274,0.004699710290879011,-0.002075196709483862,1.0000007152557373,0.4960939288139343,-0.42187514901161194,9.26953411102295,-0.052734412252902985,0.013671884313225746,-0.5625004172325134
4075276,-0.00024414079962298274,0.004699710290879011,-0.002075196709483862,1.0000007152557373,1.4179692268371582,0.26953133940696716,9.921878814697266,-0.052734412252902985,0.013671884313225746,-0.5625004172325134
4080168,-0.00024414079962298274,0.004699710290879011,-0.002075196709483862,1.0000007152557373,1.4179692268371582,0.26953133940696716,9.921878814697266,0.052734412252902985,0.11132820695638657,-0.5527347922325134
4085432,-0.00024414079962298274,0.004699710290879011,-0.002075196709483862,1.0000007152557373,1.1484378576278687,-0.9570316076278687,9.882816314697266,0.052734412252902985,0.11132820695638657,-0.5527347922325134
4090852,-0.00024414079962298274,0.004699710290879011,-0.002075196709483862,1.0000007152557373,1.1484378576278687,-0.9570316076278687,9.882816314697266,-0.03906252980232239,0.054687537252902985,-0.3691408932209015
4095180,-0.00024414079962298274,0.004699710290879011,-0.002075196709483862,1.0000007152557373,-0.42187514901161194,-0.8046877980232239,9.847660064697266,-0.03906252980232239,0.054687537252902985,-0.3691408932209015
4100644,-0.00024414079962298274,0.004699710290879011,-0.002075196709483862,1.0000007152557373,-0.42187514901161194,-0.8046877980232239,9.847660064697266,-0.003906252793967724,0.04296877980232239,-0.20312514901161194
4106876,-0.00024414079962298274,0.004699710290879011,-0.002075196709483862,1.0000007152557373,-0.8828127980232239,-0.07812502980232239,9.609378814697266,-0.003906252793967724,0.04296877980232239,-0.20312514901161194
4112160,-0.00024414079962298274,0.004699710290879011,-0.002075196709483862,1.0000007152557373,-1.0742191076278687,-0.07812502980232239,9.460941314697266,-0.003906252793967724,0.04296877980232239,-0.20312514901161194
4117704,-0.00024414079962298274,0.004699710290879011,-0.002075196709483862,1.0000007152557373,-0.5351564288139343,-0.07812502980232239,9.542972564697266,-0.003906252793967724,0.04296877980232239,-0.20312514901161194
4122976,-0.00024414079962298274,0.004699710290879011,-0.002075196709483862,1.0000007152557373,-0.23046883940696716,0.23046883940696716,9.964847564697266,-0.003906252793967724,0.04296877980232239,-0.20312514901161194
4127724,-0.00024414079962298274,0.004699710290879011,-0.002075196709483862,1.0000007152557373,-0.23046883940696716,0.23046883940696716,9.964847564697266,-0.001953126396983862,-0.054687537252902985,-0.21875014901161194
4133044,-0.00024414079962298274,0.004699710290879011,-0.002075196709483862,1.0000007152557373,0.34375011920928955,0.039062514901161194,9.347660064697266,-0.001953126396983862,-0.054687537252902985,-0.21875014901161194
4137816,-0.00024414079962298274,0.004699710290879011,-0.002075196709483862,1.0000007152557373,0.34375011920928955,0.039062514901161194,9.347660064697266,-0.017578138038516045,0.04296877980232239,-0.2617189288139343
4142488,-0.00024414079962298274,0.004699710290879011,-0.002075196709483862,1.0000007152557373,1.2656254768371582,0.34375011920928955,9.613285064697266,-0.017578138038516045,0.04296877980232239,-0.2617189288139343
4147916,-0.00024414079962298274,0.004699710290879011,-0.002075196709483862,1.0000007152557373,1.2656254768371582,0.34375011920928955,9.613285064697266,0.019531264901161194,0.08007818460464478,-0.23046891391277313
4153180,-0.00024414079962298274,0.004699710290879011,-0.002075196709483862,1.0000007152557373,0.9179691076278687,0.07812502980232239,9.16015911102295,0.019531264901161194,0.08007818460464478,-0.23046891391277313
4158420,-0.00024414079962298274,0.004699710290879011,-0.002075196709483862,1.0000007152557373,0.9179691076278687,0.07812502980232239,9.16015911102295,0.027343768626451492,0.14648447930812836,-0.15039072930812836
4163132,-0.00024414079962298274,0.004699710290879011,-0.002075196709483862,1.0000007152557373,-0.6914064884185791,0.4960939288139343,9.808597564697266,0.027343768626451492,0.14648447930812836,-0.15039072930812836
4168100,-0.00024414079962298274,0.004699710290879011,-0.002075196709483862,1.0000007152557373,-0.6914064884185791,0.4960939288139343,9.808597564697266,0.09765631705522537,0.21289077401161194,-0.14062510430812836
4172812,-0.00024414079962298274,0.004699710290879011,-0.002075196709483862,1.0000007152557373,-0.6914064884185791,0.11328128725290298,9.539066314697266,0.09765631705522537,0.21289077401161194,-0.14062510430812836
4177544,-0.00024414079962298274,0.004699710290879011,-0.002075196709483862,1.0000007152557373,-0.6914064884185791,0.11328128725290298,9.539066314697266,0.06445316970348358,0.22851578891277313,-0.22656266391277313
4182800,-0.00024414079962298274,0.004699710290879011,-0.002075196709483862,1.0000007152557373,-1.1093753576278687,-0.9179691076278687,9.460941314697266,0.06445316970348358,0.22851578891277313,-0.22656266391277313
4188316,-0.00024414079962298274,0.004699710290879011,-0.002075196709483862,1.0000007152557373,-1.1093753576278687,-0.9179691076278687,9.460941314697266,0.050781287252902985,0.2636720538139343,-0.2851564586162567
4193004,-0.00024414079962298274,0.004699710290879011,-0.002075196709483862,1.0000007152557373,-1.3398442268371582,-1.4179692268371582,9.730472564697266,0.050781287252902985,0.2636720538139343,-0.2851564586162567
4198372,-0.00024414079962298274,0.004699710290879011,-0.002075196709483862,1.0000007152557373,-1.3398442268371582,-1.4179692268371582,9.730472564697266,0.09765631705522537,0.3242189884185791,-0.3417971134185791
4203608,-0.00024414079962298274,0.004699710290879011,-0.002075196709483862,1.0000007152557373,-2.1054694652557373,-1.0351566076278687,9.691410064697266,0.09765631705522537,0.3242189884185791,-0.3417971134185791
4209356,-0.00024414079962298274,0.004699710290879011,-0.002075196709483862,1.0000007152557373,-2.1054694652557373,-1.0351566076278687,9.691410064697266,0.13671885430812836,0.3300783634185791,-0.45312532782554626
4214040,-0.00024414079962298274,0.004699710290879011,-0.002075196709483862,1.0000007152557373,-0.8437502980232239,-0.9179691076278687,10.003910064697266,0.13671885430812836,0.3300783634185791,-0.45312532782554626
4218796,-0.00024414079962298274,0.004699710290879011,-0.002075196709483862,1.0000007152557373,-0.8437502980232239,-0.9179691076278687,10.003910064697266,0.09570319205522537,0.22460953891277313,-0.5996097922325134
4223500,-0.00024414079962298274,0.004699710290879011,-0.002075196709483862,1.0000007152557373,0.11328128725290298,-0.4609376788139343,9.609378814697266,0.09570319205522537,0.22460953891277313,-0.5996097922325134
4228952,-0.00024414079962298274,0.004699710290879011,-0.002075196709483862,1.0000007152557373,0.11328128725290298,-0.4609376788139343,9.609378814697266,0.03125002235174179,0.06445316970348358,-0.6308598518371582
4234644,-0.00024414079962298274,0.004699710290879011,-0.002075196709483862,1.0000007152557373,1.2656254768371582,-0.38281264901161194,9.652347564697266,0.03125002235174179,0.06445316970348358,-0.6308598518371582
4239320,-0.00024414079962298274,0.004699710290879011,-0.002075196709483862,1.0000007152557373,0.23046883940696716,0.23046883940696716,9.730472564697266,0.03125002235174179,0.06445316970348358,-0.6308598518371582
4244036,-0.00024414079962298274,0.004699710290879011,-0.002075196709483862,1.0000007152557373,0.4960939288139343,0.039062514901161194,9.804691314697266,0.03125002235174179,0.06445316970348358,-0.6308598518371582
4249384,0.004699710290879011,0.016418468207120895,-0.049743689596652985,0.9985969066619873,0.4960939288139343,0.039062514901161194,9.804691314697266,0.03125002235174179,0.06445316970348358,-0.6308598518371582
4254736,0.004699710290879011,0.016418468207120895,-0.049743689596652985,0.9985969066619873,0.07812502980232239,-0.19140632450580597,9.769535064697266,0.03125002235174179,0.06445316970348358,-0.6308598518371582
4259416,0.004699710290879011,0.016418468207120895,-0.049743689596652985,0.9985969066619873,-0.11328128725290298,-0.30468761920928955,9.652347564697266,0.03125002235174179,0.06445316970348358,-0.6308598518371582
4264912,0.004699710290879011,0.016418468207120895,-0.049743689596652985,0.9985969066619873,-0.26953133940696716,-0.23046883940696716,9.460941314697266,0.03125002235174179,0.06445316970348358,-0.6308598518371582
4270228,0.004699710290879011,0.016418468207120895,-0.049743689596652985,0.9985969066619873,-0.4960939288139343,-0.34375011920928955,9.421878814697266,0.03125002235174179,0.06445316970348358,-0.6308598518371582
4274980,0.004699710290879011,0.016418468207120895,-0.049743689596652985,0.9985969066619873,-0.4960939288139343,-0.34375011920928955,9.421878814697266,0.021484389901161194,0.03710940107703209,-0.4160159230232239
4280428,0.004699710290879011,0.016418468207120895,-0.049743689596652985,0.9985969066619873,-0.8046877980232239,-0.6523439884185791,9.843753814697266,0.021484389901161194,0.03710940107703209,-0.4160159230232239
4286740,0.004699710290879011,0.016418468207120895,-0.049743689596652985,0.9985969066619873,-0.4960939288139343,-0.6914064884185791,9.882816314697266,0.021484389901161194,0.03710940107703209,-0.4160159230232239
4292124,0.004699710290879011,0.016418468207120895,-0.049743689596652985,0.9985969066619873,-0.8437502980232239,-0.9179691076278687,9.921878814697266,0.021484389901161194,0.03710940107703209,-0.4160159230232239
4297480,0.004699710290879011,0.016418468207120895,-0.049743689596652985,0.9985969066619873,-0.8437502980232239,-0.9179691076278687,9.921878814697266,0.03515627607703209,0.046875033527612686,-0.5097659826278687
4302240,0.004699710290879011,0.016418468207120895,-0.049743689596652985,0.9985969066619873,-0.6914064884185791,-1.4179692268371582,8.77344036102295,0.03515627607703209,0.046875033527612686,-0.5097659826278687
4307560,0.004699710290879011,0.016418468207120895,-0.049743689596652985,0.9985969066619873,-0.6914064884185791,-1.4179692268371582,8.77344036102295,0.04296877980232239,0.07031255215406418,-0.5507816672325134
4312320,0.004699710290879011,0.016418468207120895,-0.049743689596652985,0.9985969066619873,0.26953133940696716,-0.8828127980232239,9.730472564697266,0.04296877980232239,0.07031255215406418,-0.5507816672325134
4317128,0.004699710290879011,0.016418468207120895,-0.049743689596652985,0.9985969066619873,0.26953133940696716,-0.8828127980232239,9.730472564697266,0.09179694205522537,-0.005859379190951586,-0.5332034826278687
4322388,0.004699710290879011,0.016418468207120895,-0.049743689596652985,0.9985969066619873,0.4960939288139343,-1.1484378576278687,10.070316314697266,0.09179694205522537,-0.005859379190951586,-0.5332034826278687
4327776,0.004699710290879011,0.016418468207120895,-0.049743689596652985,0.9985969066619873,0.4960939288139343,-1.1484378576278687,10.070316314697266,0.044921908527612686,-0.044921908527612686,-0.47070345282554626
4332456,0.004699710290879011,0.016418468207120895,-0.049743689596652985,0.9985969066619873,-0.6523439884185791,0.0,9.765628814697266,0.044921908527612686,-0.044921908527612686,-0.47070345282554626
4337768,0.004699710290879011,0.016418468207120895,-0.049743689596652985,0.9985969066619873,-0.6523439884185791,0.0,9.765628814697266,0.03320314735174179,0.013671884313225746,-0.4179690480232239
4343448,0.004699710290879011,0.016418468207120895,-0.049743689596652985,0.9985969066619873,-0.7656252980232239,-0.26953133940696716,9.00000286102295,0.03320314735174179,0.013671884313225746,-0.4179690480232239
4348700,0.004699710290879011,0.016418468207120895,-0.049743689596652985,0.9985969066619873,0.0,-1.4570317268371582,9.04297161102295,0.03320314735174179,0.013671884313225746,-0.4179690480232239
4353500,0.004699710290879011,0.016418468207120895,-0.049743689596652985,0.9985969066619873,0.0,-1.4570317268371582,9.04297161102295,0.10742194950580597,0.06445316970348358,-0.3886721432209015
4358184,0.004699710290879011,0.016418468207120895,-0.049743689596652985,0.9985969066619873,-0.11328128725290298,1.4570317268371582,9.23047161102295,0.10742194950580597,0.06445316970348358,-0.3886721432209015
4363624,0.004699710290879011,0.016418468207120895,-0.049743689596652985,0.9985969066619873,-0.15234380960464478,1.8398444652557373,9.464847564697266,0.10742194950580597,0.06445316970348358,-0.3886721432209015
4368896,0.004699710290879011,0.016418468207120895,-0.049743689596652985,0.9985969066619873,-0.6914064884185791,1.7226568460464478,9.613285064697266,0.10742194950580597,0.06445316970348358,-0.3886721432209015
4373740,0.004699710290879011,0.016418468207120895,-0.049743689596652985,0.9985969066619873,-0.6914064884185791,1.7226568460464478,9.613285064697266,0.048828158527612686,-0.09179694205522537,-0.19140638411045074
4379160,0.004699710290879011,0.016418468207120895,-0.049743689596652985,0.9985969066619873,-0.26953133940696716,1.3398442268371582,10.265628814697266,0.048828158527612686,-0.09179694205522537,-0.19140638411045074
4384860,0.004699710290879011,0.016418468207120895,-0.049743689596652985,0.9985969066619873,0.07812502980232239,0.5742189288139343,10.000003814697266,0.048828158527612686,-0.09179694205522537,-0.19140638411045074
4390132,0.004699710290879011,0.016418468207120895,-0.049743689596652985,0.9985969066619873,0.34375011920928955,0.30468761920928955,9.500003814697266,0.048828158527612686,-0.09179694205522537,-0.19140638411045074
4394928,0.004699710290879011,0.016418468207120895,-0.049743689596652985,0.9985969066619873,0.34375011920928955,0.30468761920928955,9.500003814697266,-0.052734412252902985,0.07421880215406418,0.013671884313225746
4399628,0.004699710290879011,0.016418468207120895,-0.049743689596652985,0.9985969066619873,0.30468761920928955,-0.11328128725290298,9.11719036102295,-0.052734412252902985,0.07421880215406418,0.013671884313225746
4404392,0.004699710290879011,0.016418468207120895,-0.049743689596652985,0.9985969066619873,0.30468761920928955,-0.11328128725290298,9.11719036102295,-0.015625011175870895,0.15234385430812836,0.14257822930812836
4409812,0.004699710290879011,0.016418468207120895,-0.049743689596652985,0.9985969066619873,0.15234380960464478,-0.6523439884185791,9.730472564697266,-0.015625011175870895,0.15234385430812836,0.14257822930812836
4414580,0.004699710290879011,0.016418468207120895,-0.049743689596652985,0.9985969066619873,0.15234380960464478,-0.6523439884185791,9.730472564697266,0.11914070695638657,0.08203130960464478,0.20703139901161194
4419836,0.004699710290879011,0.016418468207120895,-0.049743689596652985,0.9985969066619873,-0.4960939288139343,-0.30468761920928955,10.687503814697266,0.11914070695638657,0.08203130960464478,0.20703139901161194
4426500,0.004699710290879011,0.016418468207120895,-0.049743689596652985,0.9985969066619873,-0.4960939288139343,-0.30468761920928955,10.687503814697266,0.16210949420928955,0.14648447930812836,0.2519533038139343
4431204,0.004699710290879011,0.016418468207120895,-0.049743689596652985,0.9985969066619873,-0.23046883940696716,-0.6523439884185791,9.382816314697266,0.16210949420928955,0.14648447930812836,0.2519533038139343
4435992,0.004699710290879011,0.016418468207120895,-0.049743689596652985,0.9985969066619873,-0.23046883940696716,-0.6523439884185791,9.382816314697266,-0.009765632450580597,0.09570319205522537,0.2753908336162567
4440784,0.004699710290879011,0.016418468207120895,-0.049743689596652985,0.9985969066619873,-0.5351564288139343,0.38281264901161194,9.765628814697266,-0.009765632450580597,0.09570319205522537,0.2753908336162567
4446544,0.004699710290879011,0.016418468207120895,-0.049743689596652985,0.9985969066619873,-0.5351564288139343,0.38281264901161194,9.765628814697266,0.14062510430812836,0.11328133195638657,0.24023455381393433
4450884,0.004699710290879011,0.016418468207120895,-0.049743689596652985,0.9985969066619873,-0.8828127980232239,-0.5351564288139343,9.16015911102295,0.14062510430812836,0.11328133195638657,0.24023455381393433
4456424,0.004699710290879011,0.016418468207120895,-0.049743689596652985,0.9985969066619873,-0.8828127980232239,-0.5351564288139343,9.16015911102295,0.10742194950580597,0.24023455381393433,0.17968763411045074
4462872,0.004699710290879011,0.016418468207120895,-0.049743689596652985,0.9985969066619873,-0.19140632450580597,0.23046883940696716,10.648441314697266,0.10742194950580597,0.24023455381393433,0.17968763411045074
4468128,0.004699710290879011,0.016418468207120895,-0.049743689596652985,0.9985969066619873,0.23046883940696716,0.8046877980232239,11.800785064697266,0.10742194950580597,0.24023455381393433,0.17968763411045074
4472912,0.004699710290879011,0.016418468207120895,-0.049743689596652985,0.9985969066619873,0.23046883940696716,0.8046877980232239,11.800785064697266,0.16796886920928955,0.09960944950580597,0.2500001788139343
4478144,0.004699710290879011,0.016418468207120895,-0.049743689596652985,0.9985969066619873,0.15234380960464478,0.26953133940696716,10.875003814697266,0.16796886920928955,0.09960944950580597,0.2500001788139343
4483580,0.004699710290879011,0.016418468207120895,-0.049743689596652985,0.9985969066619873,0.15234380960464478,0.26953133940696716,10.875003814697266,-0.15625011920928955,0.3378908634185791,0.2832033336162567
4488292,0.004699710290879011,0.016418468207120895,-0.049743689596652985,0.9985969066619873,-0.11328128725290298,0.6914064884185791,10.308597564697266,-0.15625011920928955,0.3378908634185791,0.2832033336162567
4493032,0.004699710290879011,0.016418468207120895,-0.049743689596652985,0.9985969066619873,-0.11328128725290298,0.6914064884185791,10.308597564697266,-0.2734377086162567,0.47460970282554626,0.3144533634185791
4497728,0.004699710290879011,0.016418468207120895,-0.049743689596652985,0.9985969066619873,-0.38281264901161194,-0.42187514901161194,8.39062786102295,-0.2734377086162567,0.47460970282554626,0.3144533634185791
4503308,0.004699710290879011,0.016418468207120895,-0.049743689596652985,0.9985969066619873,-0.38281264901161194,-0.42187514901161194,8.39062786102295,-0.2636720538139343,0.5507816672325134,0.3261721134185791
4508096,0.004699710290879011,0.016418468207120895,-0.049743689596652985,0.9985969066619873,-0.34375011920928955,-0.07812502980232239,8.66015911102295,-0.2636720538139343,0.5507816672325134,0.3261721134185791
4512864,0.004699710290879011,0.016418468207120895,-0.049743689596652985,0.9985969066619873,-0.34375011920928955,-0.07812502980232239,8.66015911102295,0.015625011175870895,0.47851595282554626,0.3222658634185791
4518140,0.004699710290879011,0.016418468207120895,-0.049743689596652985,0.9985969066619873,-0.42187514901161194,-0.11328128725290298,9.07812786102295,0.015625011175870895,0.47851595282554626,0.3222658634185791
4524596,0.004699710290879011,0.016418468207120895,-0.049743689596652985,0.9985969066619873,-0.42187514901161194,-0.11328128725290298,9.07812786102295,0.09960944950580597,0.3398439884185791,0.3437502384185791
4529292,0.004699710290879011,0.016418468207120895,-0.049743689596652985,0.9985969066619873,-0.5351564288139343,0.039062514901161194,9.503910064697266,0.09960944950580597,0.3398439884185791,0.3437502384185791
4534108,0.004699710290879011,0.016418468207120895,-0.049743689596652985,0.9985969066619873,-0.5351564288139343,0.039062514901161194,9.503910064697266,0.11523445695638657,0.23437516391277313,0.3574221432209015
4539384,0.004699710290879011,0.016418468207120895,-0.049743689596652985,0.9985969066619873,-0.8046877980232239,0.8046877980232239,9.26562786102295,0.11523445695638657,0.23437516391277313,0.3574221432209015
4544716,0.004699710290879011,0.016418468207120895,-0.049743689596652985,0.9985969066619873,-0.8046877980232239,0.8046877980232239,9.26562786102295,0.03320314735174179,0.16992199420928955,0.3457033634185791
4549088,0.004699710290879011,0.016418468207120895,-0.049743689596652985,0.9985969066619873,-0.8437502980232239,0.5351564288139343,8.42187786102295,0.03320314735174179,0.16992199420928955,0.3457033634185791
4554796,0.004699710290879011,0.016418468207120895,-0.049743689596652985,0.9985969066619873,-0.8437502980232239,0.5351564288139343,8.42187786102295,-0.046875033527612686,0.12500008940696716,0.3203127384185791
4559460,0.004699710290879011,0.016418468207120895,-0.049743689596652985,0.9985969066619873,-0.5351564288139343,0.4960939288139343,8.58203411102295,-0.046875033527612686,0.12500008940696716,0.3203127384185791
4565308,0.004699710290879011,0.016418468207120895,-0.049743689596652985,0.9985969066619873,-0.5351564288139343,0.4960939288139343,8.58203411102295,0.04296877980232239,-0.03125002235174179,0.3085939586162567
4570624,0.004699710290879011,0.016418468207120895,-0.049743689596652985,0.9985969066619873,-0.5742189288139343,0.8437502980232239,9.11719036102295,0.04296877980232239,-0.03125002235174179,0.3085939586162567
4575968,0.013366708531975746,0.03704836592078209,-0.054199256002902985,0.9977424144744873,-0.5742189288139343,0.8437502980232239,9.11719036102295,0.04296877980232239,-0.03125002235174179,0.3085939586162567
4581312,0.013366708531975746,0.03704836592078209,-0.054199256002902985,0.9977424144744873,-0.5351564288139343,1.1875004768371582,9.347660064697266,0.04296877980232239,-0.03125002235174179,0.3085939586162567
4586696,0.013366708531975746,0.03704836592078209,-0.054199256002902985,0.9977424144744873,-0.5351564288139343,1.5312505960464478,9.425785064697266,0.04296877980232239,-0.03125002235174179,0.3085939586162567
4591552,0.013366708531975746,0.03704836592078209,-0.054199256002902985,0.9977424144744873,-0.5351564288139343,1.5312505960464478,9.425785064697266,0.11328133195638657,-0.4042971730232239,0.3789065182209015
4596820,0.013366708531975746,0.03704836592078209,-0.054199256002902985,0.9977424144744873,-0.42187514901161194,1.0351566076278687,9.808597564697266,0.11328133195638657,-0.4042971730232239,0.3789065182209015
4601584,0.013366708531975746,0.03704836592078209,-0.054199256002902985,0.9977424144744873,-0.42187514901161194,1.0351566076278687,9.808597564697266,0.03906252980232239,-0.4218752980232239,0.3945315182209015
4607216,0.013366708531975746,0.03704836592078209,-0.054199256002902985,0.9977424144744873,-0.23046883940696716,0.42187514901161194,9.964847564697266,0.03906252980232239,-0.4218752980232239,0.3945315182209015
4612944,0.013366708531975746,0.03704836592078209,-0.054199256002902985,0.9977424144744873,-0.23046883940696716,0.42187514901161194,9.964847564697266,-0.007812505587935448,-0.3242189884185791,0.4062502980232239
4618284,0.013366708531975746,0.03704836592078209,-0.054199256002902985,0.9977424144744873,-0.19140632450580597,0.9179691076278687,10.035160064697266,-0.007812505587935448,-0.3242189884185791,0.4062502980232239
4623044,0.013366708531975746,0.03704836592078209,-0.054199256002902985,0.9977424144744873,-0.19140632450580597,0.9179691076278687,10.035160064697266,0.0,-0.2617189288139343,0.4277346730232239
4627780,0.013366708531975746,0.03704836592078209,-0.054199256002902985,0.9977424144744873,-0.26953133940696716,0.5742189288139343,9.960941314697266,0.0,-0.2617189288139343,0.4277346730232239
4632620,0.013366708531975746,0.03704836592078209,-0.054199256002902985,0.9977424144744873,-0.26953133940696716,0.5742189288139343,9.960941314697266,-0.05664066597819328,-0.24218767881393433,0.45507845282554626
4637892,0.013366708531975746,0.03704836592078209,-0.054199256002902985,0.9977424144744873,-0.42187514901161194,0.7656252980232239,9.609378814697266,-0.05664066597819328,-0.24218767881393433,0.45507845282554626
4643580,0.013366708531975746,0.03704836592078209,-0.054199256002902985,0.9977424144744873,-0.42187514901161194,0.7656252980232239,9.609378814697266,-0.06054691970348358,-0.23046891391277313,0.47656282782554626
4648300,0.013366708531975746,0.03704836592078209,-0.054199256002902985,0.9977424144744873,-0.7656252980232239,0.4609376788139343,10.000003814697266,-0.06054691970348358,-0.23046891391277313,0.47656282782554626
4653664,0.013366708531975746,0.03704836592078209,-0.054199256002902985,0.9977424144744873,-0.7656252980232239,0.4609376788139343,10.000003814697266,-0.021484389901161194,-0.24609392881393433,0.49609410762786865
4659368,0.013366708531975746,0.03704836592078209,-0.054199256002902985,0.9977424144744873,-0.6914064884185791,0.38281264901161194,9.925785064697266,-0.021484389901161194,-0.24609392881393433,0.49609410762786865
4664752,0.013366708531975746,0.03704836592078209,-0.054199256002902985,0.9977424144744873,-0.5351564288139343,0.4960939288139343,9.847660064697266,-0.021484389901161194,-0.24609392881393433,0.49609410762786865
4669452,0.013366708531975746,0.03704836592078209,-0.054199256002902985,0.9977424144744873,-0.34375011920928955,0.8437502980232239,9.503910064697266,-0.021484389901161194,-0.24609392881393433,0.49609410762786865
4674196,0.01416016649454832,0.022521989420056343,-0.03289797157049179,0.9990851879119873,-0.34375011920928955,0.8437502980232239,9.503910064697266,-0.021484389901161194,-0.24609392881393433,0.49609410762786865
4678956,0.01416016649454832,0.022521989420056343,-0.03289797157049179,0.9990851879119873,0.11328128725290298,-0.07812502980232239,9.23047161102295,-0.021484389901161194,-0.24609392881393433,0.49609410762786865
4684344,0.013671884313225746,0.021667495369911194,-0.03063967078924179,0.9992072582244873,0.11328128725290298,-0.07812502980232239,9.23047161102295,-0.021484389901161194,-0.24609392881393433,0.49609410762786865
4689700,0.013671884313225746,0.021667495369911194,-0.03063967078924179,0.9992072582244873,0.19140632450580597,0.23046883940696716,9.12109661102295,-0.021484389901161194,-0.24609392881393433,0.49609410762786865
4694964,0.013671884313225746,0.021667495369911194,-0.03063967078924179,0.9992072582244873,0.4960939288139343,0.34375011920928955,8.81250286102295,-0.021484389901161194,-0.24609392881393433,0.49609410762786865
4699876,0.013671884313225746,0.021667495369911194,-0.03063967078924179,0.9992072582244873,0.4960939288139343,0.34375011920928955,8.81250286102295,0.03710940107703209,-0.15625011920928955,0.44921907782554626
4705260,0.013671884313225746,0.021667495369911194,-0.03063967078924179,0.9992072582244873,-0.19140632450580597,0.38281264901161194,9.843753814697266,0.03710940107703209,-0.15625011920928955,0.44921907782554626
4710032,0.013671884313225746,0.021667495369911194,-0.03063967078924179,0.9992072582244873,-0.19140632450580597,0.38281264901161194,9.843753814697266,0.2734377086162567,-0.20507827401161194,0.5000003576278687
4715300,0.013671884313225746,0.021667495369911194,-0.03063967078924179,0.9992072582244873,-0.38281264901161194,2.9492197036743164,10.835941314697266,0.2734377086162567,-0.20507827401161194,0.5000003576278687
4720692,0.013671884313225746,0.021667495369911194,-0.03063967078924179,0.9992072582244873,-0.19140632450580597,0.5742189288139343,9.04297161102295,0.2734377086162567,-0.20507827401161194,0.5000003576278687
4725992,0.013671884313225746,0.021667495369911194,-0.03063967078924179,0.9992072582244873,-0.34375011920928955,0.6132814884185791,8.42187786102295,0.2734377086162567,-0.20507827401161194,0.5000003576278687
4730752,0.013671884313225746,0.021667495369911194,-0.03063967078924179,0.9992072582244873,-0.34375011920928955,0.6132814884185791,8.42187786102295,-0.019531264901161194,0.04296877980232239,0.5683597922325134
4736032,0.013671884313225746,0.021667495369911194,-0.03063967078924179,0.9992072582244873,-0.6523439884185791,1.1875004768371582,10.492191314697266,-0.019531264901161194,0.04296877980232239,0.5683597922325134
4742440,0.013671884313225746,0.021667495369911194,-0.03063967078924179,0.9992072582244873,-0.6523439884185791,1.1875004768371582,10.492191314697266,0.20117202401161194,0.025390643626451492,0.5683597922325134
4746800,0.013671884313225746,0.021667495369911194,-0.03063967078924179,0.9992072582244873,-0.42187514901161194,0.34375011920928955,8.81640911102295,0.20117202401161194,0.025390643626451492,0.5683597922325134
4752316,0.013671884313225746,0.021667495369911194,-0.03063967078924179,0.9992072582244873,-0.42187514901161194,0.34375011920928955,8.81640911102295,0.06445316970348358,0.08007818460464478,0.5800785422325134
4757068,0.013671884313225746,0.021667495369911194,-0.03063967078924179,0.9992072582244873,-0.19140632450580597,0.42187514901161194,9.23047161102295,0.06445316970348358,0.08007818460464478,0.5800785422325134
4761836,0.013671884313225746,0.021667495369911194,-0.03063967078924179,0.9992072582244873,-0.19140632450580597,0.42187514901161194,9.23047161102295,0.16601574420928955,0.046875033527612686,0.5957035422325134
4767108,0.013671884313225746,0.021667495369911194,-0.03063967078924179,0.9992072582244873,-0.039062514901161194,1.0351566076278687,10.109378814697266,0.16601574420928955,0.046875033527612686,0.5957035422325134
4771984,0.013671884313225746,0.021667495369911194,-0.03063967078924179,0.9992072582244873,-0.039062514901161194,1.0351566076278687,10.109378814697266,0.3007814586162567,0.048828158527612686,0.6054691672325134
4776680,0.013671884313225746,0.021667495369911194,-0.03063967078924179,0.9992072582244873,-0.15234380960464478,0.9570316076278687,8.88672161102295,0.3007814586162567,0.048828158527612686,0.6054691672325134
4782020,0.013671884313225746,0.021667495369911194,-0.03063967078924179,0.9992072582244873,-0.15234380960464478,0.9570316076278687,8.88672161102295,0.19531263411045074,0.050781287252902985,0.6132816672325134
4787296,0.013671884313225746,0.021667495369911194,-0.03063967078924179,0.9992072582244873,0.0,1.0351566076278687,9.19531536102295,0.19531263411045074,0.050781287252902985,0.6132816672325134
4792052,0.021179214119911194,0.020263686776161194,-0.000976563198491931,0.9995734691619873,0.0,1.0351566076278687,9.19531536102295,0.19531263411045074,0.050781287252902985,0.6132816672325134
4796380,0.021179214119911194,0.020263686776161194,-0.000976563198491931,0.9995734691619873,-0.26953133940696716,1.2265629768371582,9.804691314697266,0.19531263411045074,0.050781287252902985,0.6132816672325134
4801156,0.021179214119911194,0.020263686776161194,-0.000976563198491931,0.9995734691619873,-0.26953133940696716,1.2265629768371582,9.804691314697266,0.4023440480232239,-0.001953126396983862,0.6250004768371582
4805520,0.021179214119911194,0.020263686776161194,-0.000976563198491931,0.9995734691619873,-0.19140632450580597,0.5351564288139343,9.425785064697266,0.4023440480232239,-0.001953126396983862,0.6250004768371582
4810004,0.021179214119911194,0.020263686776161194,-0.000976563198491931,0.9995734691619873,-0.19140632450580597,0.5351564288139343,9.425785064697266,0.3339846134185791,0.04101565480232239,0.6406254768371582
4814412,0.025024432688951492,0.020263686776161194,0.0051879920065402985,0.9994513988494873,-0.19140632450580597,0.5351564288139343,9.425785064697266,0.3339846134185791,0.04101565480232239,0.6406254768371582
4819840,0.025024432688951492,0.020263686776161194,0.0051879920065402985,0.9994513988494873,-0.19140632450580597,0.5351564288139343,9.425785064697266,0.3750002682209015,0.06054691970348358,0.6660161018371582
4825104,0.025024432688951492,0.020263686776161194,0.0051879920065402985,0.9994513988494873,-0.23046883940696716,0.8437502980232239,9.382816314697266,0.3750002682209015,0.06054691970348358,0.6660161018371582
4829872,0.025024432688951492,0.020263686776161194,0.0051879920065402985,0.9994513988494873,-0.23046883940696716,0.8437502980232239,9.382816314697266,0.4335940480232239,0.05859379097819328,0.6601567268371582
4835136,0.025024432688951492,0.020263686776161194,0.0051879920065402985,0.9994513988494873,-0.4960939288139343,0.8437502980232239,9.26562786102295,0.4335940480232239,0.05859379097819328,0.6601567268371582
4840472,0.025024432688951492,0.020263686776161194,0.0051879920065402985,0.9994513988494873,-0.4960939288139343,0.8437502980232239,9.26562786102295,0.46679720282554626,0.02929689548909664,0.6347661018371582
4845768,0.025024432688951492,0.020263686776161194,0.0051879920065402985,0.9994513988494873,-0.38281264901161194,0.6132814884185791,9.542972564697266,0.46679720282554626,0.02929689548909664,0.6347661018371582
4850576,0.025024432688951492,0.020263686776161194,0.0051879920065402985,0.9994513988494873,-0.38281264901161194,0.6132814884185791,9.542972564697266,0.49804723262786865,0.003906252793967724,0.6230472922325134
4855276,0.025024432688951492,0.020263686776161194,0.0051879920065402985,0.9994513988494873,-0.19140632450580597,0.6523439884185791,9.19922161102295,0.49804723262786865,0.003906252793967724,0.6230472922325134
4860320,0.025024432688951492,0.020263686776161194,0.0051879920065402985,0.9994513988494873,-0.19140632450580597,0.6523439884185791,9.19922161102295,0.5136722326278687,0.007812505587935448,0.6015629172325134
4865572,0.025024432688951492,0.020263686776161194,0.0051879920065402985,0.9994513988494873,0.4960939288139343,0.8437502980232239,8.92187786102295,0.5136722326278687,0.007812505587935448,0.6015629172325134
4870348,0.025024432688951492,0.020263686776161194,0.0051879920065402985,0.9994513988494873,0.4960939288139343,0.8437502980232239,8.92187786102295,0.5976566672325134,0.025390643626451492,0.6171879172325134
4875060,0.025024432688951492,0.020263686776161194,0.0051879920065402985,0.9994513988494873,0.07812502980232239,1.1093753576278687,9.22656536102295,0.5976566672325134,0.025390643626451492,0.6171879172325134
4881704,0.025024432688951492,0.020263686776161194,0.0051879920065402985,0.9994513988494873,0.07812502980232239,1.1093753576278687,9.22656536102295,0.748047411441803,0.027343768626451492,0.6757817268371582
4886152,0.025024432688951492,0.020263686776161194,0.0051879920065402985,0.9994513988494873,-0.6132814884185791,1.3398442268371582,9.16015911102295,0.748047411441803,0.027343768626451492,0.6757817268371582
4890964,0.025024432688951492,0.020263686776161194,0.0051879920065402985,0.9994513988494873,-0.6132814884185791,1.3398442268371582,9.16015911102295,0.7968755960464478,0.0,0.6777348518371582
4895664,0.025024432688951492,0.020263686776161194,0.0051879920065402985,0.9994513988494873,-1.4179692268371582,1.3007817268371582,9.30859661102295,0.7968755960464478,0.0,0.6777348518371582
4900988,0.025024432688951492,0.020263686776161194,0.0051879920065402985,0.9994513988494873,-1.4179692268371582,1.3007817268371582,9.30859661102295,0.8398443460464478,-0.027343768626451492,0.6230472922325134
4905312,0.025024432688951492,0.020263686776161194,0.0051879920065402985,0.9994513988494873,-1.8007818460464478,1.4921879768371582,9.609378814697266,0.8398443460464478,-0.027343768626451492,0.6230472922325134
4910684,0.025024432688951492,0.020263686776161194,0.0051879920065402985,0.9994513988494873,-1.8007818460464478,1.4921879768371582,9.609378814697266,0.8691412210464478,-0.03515627607703209,0.5000003576278687
4916392,0.025024432688951492,0.020263686776161194,0.0051879920065402985,0.9994513988494873,-1.5312505960464478,1.8007818460464478,9.464847564697266,0.8691412210464478,-0.03515627607703209,0.5000003576278687
4921676,0.025024432688951492,0.020263686776161194,0.0051879920065402985,0.9994513988494873,-1.1484378576278687,1.6093755960464478,9.464847564697266,0.8691412210464478,-0.03515627607703209,0.5000003576278687
4926508,0.025024432688951492,0.020263686776161194,0.0051879920065402985,0.9994513988494873,-1.1484378576278687,1.6093755960464478,9.464847564697266,0.8437505960464478,-0.048828158527612686,0.2500001788139343
4931204,0.025024432688951492,0.020263686776161194,0.0051879920065402985,0.9994513988494873,-1.1875004768371582,2.1835944652557373,9.843753814697266,0.8437505960464478,-0.048828158527612686,0.2500001788139343
4936768,0.025024432688951492,0.020263686776161194,0.0051879920065402985,0.9994513988494873,-1.2265629768371582,2.1835944652557373,9.960941314697266,0.8437505960464478,-0.048828158527612686,0.2500001788139343
4941444,0.025024432688951492,0.020263686776161194,0.0051879920065402985,0.9994513988494873,-0.9179691076278687,2.1054694652557373,10.148441314697266,0.8437505960464478,-0.048828158527612686,0.2500001788139343
4946780,0.025024432688951492,0.020263686776161194,0.0051879920065402985,0.9994513988494873,-0.6914064884185791,1.9531257152557373,10.230472564697266,0.8437505960464478,-0.048828158527612686,0.2500001788139343
4951476,0.025024432688951492,0.020263686776161194,0.0051879920065402985,0.9994513988494873,-0.26953133940696716,1.8789069652557373,10.386722564697266,0.8437505960464478,-0.048828158527612686,0.2500001788139343
4957428,0.025024432688951492,0.020263686776161194,0.0051879920065402985,0.9994513988494873,-0.15234380960464478,1.9140632152557373,10.652347564697266,0.8437505960464478,-0.048828158527612686,0.2500001788139343
4962700,0.025024432688951492,0.020263686776161194,0.0051879920065402985,0.9994513988494873,0.5742189288139343,1.3007817268371582,10.648441314697266,0.8437505960464478,-0.048828158527612686,0.2500001788139343
4967476,0.025024432688951492,0.020263686776161194,0.0051879920065402985,0.9994513988494873,0.5742189288139343,1.3007817268371582,10.648441314697266,0.18554700911045074,-0.07812505960464478,0.11914070695638657
4972792,0.025024432688951492,0.020263686776161194,0.0051879920065402985,0.9994513988494873,1.2265629768371582,0.8828127980232239,10.914066314697266,0.18554700911045074,-0.07812505960464478,0.11914070695638657
4979556,0.025024432688951492,0.020263686776161194,0.0051879920065402985,0.9994513988494873,1.3789067268371582,1.0742191076278687,10.652347564697266,0.18554700911045074,-0.07812505960464478,0.11914070695638657
4984340,0.025024432688951492,0.020263686776161194,0.0051879920065402985,0.9994513988494873,1.1093753576278687,0.9960941076278687,10.687503814697266,0.18554700911045074,-0.07812505960464478,0.11914070695638657
4989136,0.025024432688951492,0.020263686776161194,0.0051879920065402985,0.9994513988494873,1.1093753576278687,0.9960941076278687,10.687503814697266,-0.3769533932209015,-0.023437516763806343,0.3222658634185791
4994420,0.025024432688951492,0.020263686776161194,0.0051879920065402985,0.9994513988494873,0.9960941076278687,0.26953133940696716,10.492191314697266,-0.3769533932209015,-0.023437516763806343,0.3222658634185791
4999872,0.025024432688951492,0.020263686776161194,0.0051879920065402985,0.9994513988494873,0.9960941076278687,0.26953133940696716,10.492191314697266,-0.6191410422325134,-0.021484389901161194,0.3945315182209015
5004188,0.025024432688951492,0.020263686776161194,0.0051879920065402985,0.9994513988494873,0.6523439884185791,-0.039062514901161194,10.730472564697266,-0.6191410422325134,-0.021484389901161194,0.3945315182209015
5009912,0.025024432688951492,0.020263686776161194,0.0051879920065402985,0.9994513988494873,0.6523439884185791,-0.039062514901161194,10.730472564697266,-0.738281786441803,0.023437516763806343,0.47851595282554626
5016068,0.025024432688951492,0.020263686776161194,0.0051879920065402985,0.9994513988494873,0.9179691076278687,-0.8828127980232239,8.31250286102295,-0.738281786441803,0.023437516763806343,0.47851595282554626
5020764,0.025024432688951492,0.020263686776161194,0.0051879920065402985,0.9994513988494873,1.2656254768371582,1.0742191076278687,8.35156536102295,-0.738281786441803,0.023437516763806343,0.47851595282554626
5026104,0.025024432688951492,0.020263686776161194,0.0051879920065402985,0.9994513988494873,0.9570316076278687,0.8437502980232239,7.656252861022949,-0.738281786441803,0.023437516763806343,0.47851595282554626
5030844,0.025024432688951492,0.020263686776161194,0.0051879920065402985,0.9994513988494873,0.15234380960464478,0.9179691076278687,7.773440361022949,-0.738281786441803,0.023437516763806343,0.47851595282554626
5036248,0.025024432688951492,0.020263686776161194,0.0051879920065402985,0.9994513988494873,-0.4960939288139343,1.3398442268371582,8.23828411102295,-0.738281786441803,0.023437516763806343,0.47851595282554626
5041516,0.025024432688951492,0.020263686776161194,0.0051879920065402985,0.9994513988494873,-1.2265629768371582,1.2265629768371582,8.31250286102295,-0.738281786441803,0.023437516763806343,0.47851595282554626
5046304,0.025024432688951492,0.020263686776161194,0.0051879920065402985,0.9994513988494873,-1.2265629768371582,1.2265629768371582,8.31250286102295,-0.2675783038139343,-0.3085939586162567,0.5703129172325134
5051592,0.025024432688951492,0.020263686776161194,0.0051879920065402985,0.9994513988494873,-1.3398442268371582,0.5742189288139343,8.57812786102295,-0.2675783038139343,-0.3085939586162567,0.5703129172325134
5056980,0.025024432688951492,0.020263686776161194,0.0051879920065402985,0.9994513988494873,-1.3398442268371582,0.5742189288139343,8.57812786102295,-0.21679702401161194,-0.46679720282554626,0.46289095282554626
5062256,0.025024432688951492,0.020263686776161194,0.0051879920065402985,0.9994513988494873,-0.6523439884185791,3.5625011920928955,11.535160064697266,-0.21679702401161194,-0.46679720282554626,0.46289095282554626
5068200,0.025024432688951492,0.020263686776161194,0.0051879920065402985,0.9994513988494873,-0.6523439884185791,3.5625011920928955,11.535160064697266,-0.046875033527612686,-0.023437516763806343,0.3417971134185791
5072964,0.025024432688951492,0.020263686776161194,0.0051879920065402985,0.9994513988494873,-0.38281264901161194,0.8046877980232239,10.687503814697266,-0.046875033527612686,-0.023437516763806343,0.3417971134185791
5078284,0.025024432688951492,0.020263686776161194,0.0051879920065402985,0.9994513988494873,-0.38281264901161194,0.8046877980232239,10.687503814697266,-0.6269536018371582,0.06835942715406418,0.3261721134185791
5082620,0.025024432688951492,0.020263686776161194,0.0051879920065402985,0.9994513988494873,0.7265627384185791,0.8046877980232239,10.000003814697266,-0.6269536018371582,0.06835942715406418,0.3261721134185791
5087392,0.025024432688951492,0.020263686776161194,0.0051879920065402985,0.9994513988494873,0.7265627384185791,0.8046877980232239,10.000003814697266,-0.9296881556510925,0.16796886920928955,0.3730471432209015
5092716,0.025024432688951492,0.020263686776161194,0.0051879920065402985,0.9994513988494873,0.5742189288139343,1.2265629768371582,10.308597564697266,-0.9296881556510925,0.16796886920928955,0.3730471432209015
5098408,0.025024432688951492,0.020263686776161194,0.0051879920065402985,0.9994513988494873,0.5742189288139343,1.2265629768371582,10.308597564697266,-1.0390632152557373,0.19531263411045074,0.45117220282554626
5102732,0.025024432688951492,0.020263686776161194,0.0051879920065402985,0.9994513988494873,0.19140632450580597,0.23046883940696716,9.765628814697266,-1.0390632152557373,0.19531263411045074,0.45117220282554626
5108060,0.025024432688951492,0.020263686776161194,0.0051879920065402985,0.9994513988494873,0.19140632450580597,0.23046883940696716,9.765628814697266,-1.1699227094650269,0.12500008940696716,0.5078128576278687
5113360,0.025024432688951492,0.020263686776161194,0.0051879920065402985,0.9994513988494873,0.26953133940696716,0.6523439884185791,8.77734661102295,-1.1699227094650269,0.12500008940696716,0.5078128576278687
5119060,0.03637697920203209,0.016052257269620895,0.07513432949781418,0.9963996410369873,0.26953133940696716,0.6523439884185791,8.77734661102295,-1.1699227094650269,0.12500008940696716,0.5078128576278687
5123800,0.03637697920203209,0.016052257269620895,0.07513432949781418,0.9963996410369873,0.26953133940696716,0.6523439884185791,8.77734661102295,-0.9785163402557373,-0.052734412252902985,0.5566410422325134
5128132,0.03637697920203209,0.016052257269620895,0.07513432949781418,0.9963996410369873,-0.9570316076278687,-0.15234380960464478,10.574222564697266,-0.9785163402557373,-0.052734412252902985,0.5566410422325134
5132456,0.03637697920203209,0.016052257269620895,0.07513432949781418,0.9963996410369873,0.07812502980232239,2.1835944652557373,9.07812786102295,-0.9785163402557373,-0.052734412252902985,0.5566410422325134
5137224,0.03637697920203209,0.016052257269620895,0.07513432949781418,0.9963996410369873,0.07812502980232239,2.1835944652557373,9.07812786102295,-0.7949224710464478,0.07031255215406418,0.5234378576278687
5141564,0.03637697920203209,0.016052257269620895,0.07513432949781418,0.9963996410369873,0.4960939288139343,0.6914064884185791,9.343753814697266,-0.7949224710464478,0.07031255215406418,0.5234378576278687
5145896,0.03637697920203209,0.016052257269620895,0.07513432949781418,0.9963996410369873,0.4960939288139343,0.6914064884185791,9.343753814697266,-0.8671880960464478,0.08593755960464478,0.5234378576278687
5150308,0.022888200357556343,0.015197765082120895,0.08343511819839478,0.9961555004119873,0.4960939288139343,0.6914064884185791,9.343753814697266,-0.8671880960464478,0.08593755960464478,0.5234378576278687
5155716,0.022888200357556343,0.015197765082120895,0.08343511819839478,0.9961555004119873,0.4960939288139343,0.6914064884185791,9.343753814697266,-0.8105474710464478,0.10546882450580597,0.5761722922325134
5160992,0.022888200357556343,0.015197765082120895,0.08343511819839478,0.9961555004119873,-0.7265627384185791,-1.1484378576278687,4.097657680511475,-0.8105474710464478,0.10546882450580597,0.5761722922325134
5165748,0.022888200357556343,0.015197765082120895,0.08343511819839478,0.9961555004119873,-0.7265627384185791,-1.1484378576278687,4.097657680511475,-0.13867197930812836,-0.11328133195638657,0.5976566672325134
5171028,0.022888200357556343,0.015197765082120895,0.08343511819839478,0.9961555004119873,-2.2617194652557373,2.6445322036743164,12.605473518371582,-0.13867197930812836,-0.11328133195638657,0.5976566672325134
5175932,0.022888200357556343,0.015197765082120895,0.08343511819839478,0.9961555004119873,-2.2617194652557373,2.6445322036743164,12.605473518371582,0.8144537210464478,-0.08398443460464478,0.5039066076278687
5180640,0.022888200357556343,0.015197765082120895,0.08343511819839478,0.9961555004119873,-2.3359384536743164,2.1445319652557373,12.562504768371582,0.8144537210464478,-0.08398443460464478,0.5039066076278687
5185596,0.022888200357556343,0.015197765082120895,0.08343511819839478,0.9961555004119873,-2.3359384536743164,2.1445319652557373,12.562504768371582,-0.06054691970348358,-0.06835942715406418,0.4062502980232239
5190840,0.022888200357556343,0.015197765082120895,0.08343511819839478,0.9961555004119873,-1.4921879768371582,0.26953133940696716,8.23437786102295,-0.06054691970348358,-0.06835942715406418,0.4062502980232239
5196588,0.022888200357556343,0.015197765082120895,0.08343511819839478,0.9961555004119873,-1.4921879768371582,0.26953133940696716,8.23437786102295,-0.6171879172325134,-0.2500001788139343,0.2832033336162567
5200908,0.022888200357556343,0.015197765082120895,0.08343511819839478,0.9961555004119873,-0.9960941076278687,-0.23046883940696716,8.27344036102295,-0.6171879172325134,-0.2500001788139343,0.2832033336162567
5205796,0.022888200357556343,0.015197765082120895,0.08343511819839478,0.9961555004119873,-0.9960941076278687,-0.23046883940696716,8.27344036102295,-0.19335950911045074,-0.13671885430812836,0.20898452401161194
5210488,0.022888200357556343,0.015197765082120895,0.08343511819839478,0.9961555004119873,-0.7656252980232239,0.6132814884185791,10.187503814697266,-0.19335950911045074,-0.13671885430812836,0.20898452401161194
5215856,0.022888200357556343,0.015197765082120895,0.08343511819839478,0.9961555004119873,-0.7656252980232239,0.6132814884185791,10.187503814697266,0.20507827401161194,-0.017578138038516045,0.16601574420928955
5220540,0.022888200357556343,0.015197765082120895,0.08343511819839478,0.9961555004119873,-0.42187514901161194,0.6132814884185791,10.000003814697266,0.20507827401161194,-0.017578138038516045,0.16601574420928955
5225712,0.022888200357556343,0.015197765082120895,0.08343511819839478,0.9961555004119873,-0.42187514901161194,0.6132814884185791,10.000003814697266,0.09765631705522537,0.04101565480232239,0.12695321440696716
5230456,0.022888200357556343,0.015197765082120895,0.08343511819839478,0.9961555004119873,-0.38281264901161194,0.7265627384185791,9.23047161102295,0.09765631705522537,0.04101565480232239,0.12695321440696716
5236096,0.022888200357556343,0.015197765082120895,0.08343511819839478,0.9961555004119873,-0.38281264901161194,0.7265627384185791,9.23047161102295,0.001953126396983862,0.054687537252902985,0.10546882450580597
5241360,0.022888200357556343,0.015197765082120895,0.08343511819839478,0.9961555004119873,-0.5742189288139343,0.6523439884185791,9.808597564697266,0.001953126396983862,0.054687537252902985,0.10546882450580597
5246724,0.022888200357556343,0.015197765082120895,0.08343511819839478,0.9961555004119873,-0.5742189288139343,0.6523439884185791,9.808597564697266,0.023437516763806343,0.011718758381903172,0.11523445695638657
5251400,0.022888200357556343,0.015197765082120895,0.08343511819839478,0.9961555004119873,-0.42187514901161194,0.6132814884185791,10.035160064697266,0.023437516763806343,0.011718758381903172,0.11523445695638657
5257176,0.022888200357556343,0.015197765082120895,0.08343511819839478,0.9961555004119873,-0.42187514901161194,0.6132814884185791,10.035160064697266,-0.052734412252902985,-0.044921908527612686,0.09960944950580597
5261508,0.022888200357556343,0.015197765082120895,0.08343511819839478,0.9961555004119873,-0.34375011920928955,0.23046883940696716,9.19922161102295,-0.052734412252902985,-0.044921908527612686,0.09960944950580597
5266884,0.022888200357556343,0.015197765082120895,0.08343511819839478,0.9961555004119873,-0.34375011920928955,0.23046883940696716,9.19922161102295,-0.13281258940696716,-0.06250004470348358,0.08398443460464478
5272572,0.022888200357556343,0.015197765082120895,0.08343511819839478,0.9961555004119873,-0.30468761920928955,0.15234380960464478,9.19922161102295,-0.13281258940696716,-0.06250004470348358,0.08398443460464478
5277824,0.022888200357556343,0.015197765082120895,0.08343511819839478,0.9961555004119873,-0.11328128725290298,0.42187514901161194,9.613285064697266,-0.13281258940696716,-0.06250004470348358,0.08398443460464478
5283292,0.022888200357556343,0.015197765082120895,0.08343511819839478,0.9961555004119873,0.0,0.34375011920928955,9.886722564697266,-0.13281258940696716,-0.06250004470348358,0.08398443460464478
5288892,0.022888200357556343,0.015197765082120895,0.08343511819839478,0.9961555004119873,0.039062514901161194,0.15234380960464478,9.847660064697266,-0.13281258940696716,-0.06250004470348358,0.08398443460464478
5294532,0.022888200357556343,0.015197765082120895,0.08343511819839478,0.9961555004119873,0.039062514901161194,0.15234380960464478,9.847660064697266,-0.03125002235174179,-0.001953126396983862,0.05664066597819328
5299228,0.022888200357556343,0.015197765082120895,0.08343511819839478,0.9961555004119873,0.30468761920928955,0.0,9.460941314697266,-0.03125002235174179,-0.001953126396983862,0.05664066597819328
5303964,0.022888200357556343,0.015197765082120895,0.08343511819839478,0.9961555004119873,0.30468761920928955,0.0,9.460941314697266,-0.03710940107703209,0.0,0.08789068460464478
5308668,0.022888200357556343,0.015197765082120895,0.08343511819839478,0.9961555004119873,0.19140632450580597,-0.11328128725290298,9.613285064697266,-0.03710940107703209,0.0,0.08789068460464478
5313548,0.022888200357556343,0.015197765082120895,0.08343511819839478,0.9961555004119873,0.19140632450580597,-0.11328128725290298,9.613285064697266,0.015625011175870895,-0.001953126396983862,0.12304696440696716
5318800,0.022888200357556343,0.015197765082120895,0.08343511819839478,0.9961555004119873,0.26953133940696716,0.0,9.765628814697266,0.015625011175870895,-0.001953126396983862,0.12304696440696716
5323544,0.022888200357556343,0.015197765082120895,0.08343511819839478,0.9961555004119873,0.26953133940696716,0.0,9.765628814697266,0.02929689548909664,-0.007812505587935448,0.17187511920928955
5328876,0.022888200357556343,0.015197765082120895,0.08343511819839478,0.9961555004119873,-0.15234380960464478,0.19140632450580597,9.652347564697266,0.02929689548909664,-0.007812505587935448,0.17187511920928955
5334580,0.022888200357556343,0.015197765082120895,0.08343511819839478,0.9961555004119873,-0.15234380960464478,0.19140632450580597,9.652347564697266,-0.003906252793967724,0.0,0.19921889901161194
5339292,0.022888200357556343,0.015197765082120895,0.08343511819839478,0.9961555004119873,-0.6914064884185791,0.34375011920928955,9.613285064697266,-0.003906252793967724,0.0,0.19921889901161194
5344740,0.022888200357556343,0.015197765082120895,0.08343511819839478,0.9961555004119873,-0.6914064884185791,0.34375011920928955,9.613285064697266,0.0,0.0,0.19531263411045074
5350008,0.022888200357556343,0.015197765082120895,0.08343511819839478,0.9961555004119873,-0.6523439884185791,0.34375011920928955,9.730472564697266,0.0,0.0,0.19531263411045074
5355376,0.022888200357556343,0.015197765082120895,0.08343511819839478,0.9961555004119873,-0.6523439884185791,0.34375011920928955,9.730472564697266,-0.007812505587935448,-0.021484389901161194,0.16210949420928955
5359700,0.022888200357556343,0.015197765082120895,0.08343511819839478,0.9961555004119873,-0.9179691076278687,0.6523439884185791,9.730472564697266,-0.007812505587935448,-0.021484389901161194,0.16210949420928955
5365380,0.022888200357556343,0.015197765082120895,0.08343511819839478,0.9961555004119873,-0.9179691076278687,0.6523439884185791,9.730472564697266,-0.02929689548909664,-0.03710940107703209,0.12109383940696716
5371064,0.022888200357556343,0.015197765082120895,0.08343511819839478,0.9961555004119873,-0.8046877980232239,0.42187514901161194,9.765628814697266,-0.02929689548909664,-0.03710940107703209,0.12109383940696716
5376320,0.022888200357556343,0.015197765082120895,0.08343511819839478,0.9961555004119873,-0.11328128725290298,0.19140632450580597,9.687503814697266,-0.02929689548909664,-0.03710940107703209,0.12109383940696716
5381148,0.022888200357556343,0.015197765082120895,0.08343511819839478,0.9961555004119873,-0.11328128725290298,0.19140632450580597,9.687503814697266,-0.10156257450580597,-0.06835942715406418,0.011718758381903172
5385856,0.022888200357556343,0.015197765082120895,0.08343511819839478,0.9961555004119873,-0.11328128725290298,0.11328128725290298,9.542972564697266,-0.10156257450580597,-0.06835942715406418,0.011718758381903172
5390580,0.022888200357556343,0.015197765082120895,0.08343511819839478,0.9961555004119873,-0.30468761920928955,-0.039062514901161194,9.843753814697266,-0.10156257450580597,-0.06835942715406418,0.011718758381903172
5395964,0.016113292425870895,0.009704596363008022,0.10766609013080597,0.9940192699432373,-0.30468761920928955,-0.039062514901161194,9.843753814697266,-0.10156257450580597,-0.06835942715406418,0.011718758381903172
5400664,0.016113292425870895,0.009704596363008022,0.10766609013080597,0.9940192699432373,-0.15234380960464478,0.4609376788139343,10.386722564697266,-0.10156257450580597,-0.06835942715406418,0.011718758381903172
5405476,0.015808116644620895,0.009155279956758022,0.10772712528705597,0.9940192699432373,-0.15234380960464478,0.4609376788139343,10.386722564697266,-0.10156257450580597,-0.06835942715406418,0.011718758381903172
5410892,0.015808116644620895,0.009155279956758022,0.10772712528705597,0.9940192699432373,-0.07812502980232239,0.15234380960464478,9.730472564697266,-0.10156257450580597,-0.06835942715406418,0.011718758381903172
5415576,0.015808116644620895,0.009155279956758022,0.10772712528705597,0.9940192699432373,-0.039062514901161194,0.039062514901161194,9.30469036102295,-0.10156257450580597,-0.06835942715406418,0.011718758381903172
5420936,0.015808116644620895,0.009155279956758022,0.10772712528705597,0.9940192699432373,0.0,-0.11328128725290298,9.08203411102295,-0.10156257450580597,-0.06835942715406418,0.011718758381903172
5425664,0.015808116644620895,0.009155279956758022,0.10772712528705597,0.9940192699432373,0.039062514901161194,-0.07812502980232239,9.12109661102295,-0.10156257450580597,-0.06835942715406418,0.011718758381903172
5431236,0.015808116644620895,0.009155279956758022,0.10772712528705597,0.9940192699432373,0.11328128725290298,-0.039062514901161194,9.19531536102295,-0.10156257450580597,-0.06835942715406418,0.011718758381903172
5436560,0.015808116644620895,0.009155279956758022,0.10772712528705597,0.9940192699432373,0.23046883940696716,-0.039062514901161194,9.30859661102295,-0.10156257450580597,-0.06835942715406418,0.011718758381903172
5441324,0.015808116644620895,0.009155279956758022,0.10772712528705597,0.9940192699432373,0.23046883940696716,-0.039062514901161194,9.30859661102295,-0.07617192715406418,-0.10546882450580597,0.017578138038516045
5446004,0.015808116644620895,0.009155279956758022,0.10772712528705597,0.9940192699432373,0.23046883940696716,-0.039062514901161194,9.22656536102295,-0.07617192715406418,-0.10546882450580597,0.017578138038516045
5451392,0.015808116644620895,0.009155279956758022,0.10772712528705597,0.9940192699432373,0.23046883940696716,-0.039062514901161194,9.19922161102295,-0.07617192715406418,-0.10546882450580597,0.017578138038516045
5456648,0.015808116644620895,0.009155279956758022,0.10772712528705597,0.9940192699432373,0.23046883940696716,0.0,9.19922161102295,-0.07617192715406418,-0.10546882450580597,0.017578138038516045
5461428,0.015808116644620895,0.009155279956758022,0.10772712528705597,0.9940192699432373,0.23046883940696716,0.0,9.19922161102295,0.025390643626451492,0.03515627607703209,0.06054691970348358
5467044,0.015808116644620895,0.009155279956758022,0.10772712528705597,0.9940192699432373,-0.11328128725290298,0.0,9.347660064697266,0.025390643626451492,0.03515627607703209,0.06054691970348358
5472780,0.015808116644620895,0.009155279956758022,0.10772712528705597,0.9940192699432373,-0.11328128725290298,0.0,9.347660064697266,0.08984381705522537,0.08007818460464478,0.03906252980232239
5477132,0.015808116644620895,0.009155279956758022,0.10772712528705597,0.9940192699432373,-0.19140632450580597,0.23046883940696716,9.964847564697266,0.08984381705522537,0.08007818460464478,0.03906252980232239
5481920,0.015808116644620895,0.009155279956758022,0.10772712528705597,0.9940192699432373,-0.19140632450580597,0.23046883940696716,9.964847564697266,0.12500008940696716,0.07226567715406418,0.009765632450580597
5486612,0.015808116644620895,0.009155279956758022,0.10772712528705597,0.9940192699432373,-0.19140632450580597,0.34375011920928955,10.382816314697266,0.12500008940696716,0.07226567715406418,0.009765632450580597
5491408,0.015808116644620895,0.009155279956758022,0.10772712528705597,0.9940192699432373,-0.19140632450580597,0.34375011920928955,10.382816314697266,0.06250004470348358,0.005859379190951586,0.003906252793967724
