Timestamp,QI,QJ,QK,QR,AX,AY,AZ,GX,GY,GZ
2448928,0.0,0.0,0.0,0.0,-0.039062514901161194,-0.38281264901161194,9.648441314697266,0.0,0.0,0.0
2453228,0.0,0.0,0.0,0.0,-0.07812502980232239,-0.38281264901161194,9.609378814697266,0.0,0.0,0.0
2457880,0.0,0.0,0.0,0.0,-0.07812502980232239,-0.38281264901161194,9.691410064697266,0.0,0.0,0.0
2463044,0.0,0.0,0.0,0.0,-0.07812502980232239,-0.38281264901161194,9.609378814697266,0.0,0.0,0.0
2468408,0.0,0.0,0.0,0.0,-0.039062514901161194,-0.38281264901161194,9.609378814697266,0.0,0.0,0.0
2473996,0.0,0.0,0.0,0.0,-0.11328128725290298,-0.38281264901161194,9.609378814697266,0.0,0.0,0.0
2479892,0.0,0.0,0.0,0.0,-0.07812502980232239,-0.42187514901161194,9.652347564697266,0.0,0.0,0.0
2484548,0.0,0.0,0.0,0.0,-0.07812502980232239,-0.42187514901161194,9.652347564697266,0.0,0.0,0.0
2490924,0.0,0.0,0.0,0.0,-0.039062514901161194,-0.38281264901161194,9.648441314697266,0.0,0.0,0.0
2496832,0.0,0.0,0.0,0.0,-0.07812502980232239,-0.42187514901161194,9.613285064697266,0.0,0.0,0.0
2502500,0.0,0.0,0.0,0.0,-0.07812502980232239,-0.38281264901161194,9.609378814697266,0.0,0.0,0.0
2507872,0.0,0.0,0.0,0.0,-0.07812502980232239,-0.38281264901161194,9.648441314697266,0.0,0.0,0.0
2513088,0.0,0.0,0.0,0.0,-0.07812502980232239,-0.38281264901161194,9.648441314697266,0.0,0.0,0.0
2518668,0.0,0.0,0.0,0.0,-0.11328128725290298,-0.38281264901161194,9.609378814697266,0.0,0.0,0.0
2522972,0.0,0.0,0.0,0.0,-0.07812502980232239,-0.42187514901161194,9.687503814697266,0.0,0.0,0.0
2529396,0.0,0.0,0.0,0.0,-0.07812502980232239,-0.42187514901161194,9.687503814697266,-0.001953126396983862,-0.001953126396983862,-0.001953126396983862
2536408,0.0,0.0,0.0,0.0,-0.07812502980232239,-0.42187514901161194,9.687503814697266,0.0,-0.003906252793967724,0.0
2540700,0.0,0.0,0.0,0.0,-0.07812502980232239,-0.42187514901161194,9.687503814697266,0.0,0.0,0.001953126396983862
2545788,-0.008728033863008022,-0.020324721932411194,0.9747321605682373,0.22235123813152313,-0.07812502980232239,-0.42187514901161194,9.687503814697266,0.0,0.0,0.001953126396983862
2550480,-0.008728033863008022,-0.020324721932411194,0.9747321605682373,0.22235123813152313,-0.039062514901161194,-0.42187514901161194,9.613285064697266,0.0,0.0,0.001953126396983862
2555932,-0.008728033863008022,-0.020324721932411194,0.9747321605682373,0.22235123813152313,-0.039062514901161194,-0.42187514901161194,9.613285064697266,0.0,0.0,0.001953126396983862
2560632,-0.008728033863008022,-0.020324721932411194,0.9747321605682373,0.22235123813152313,0.0,-0.42187514901161194,9.613285064697266,0.0,0.0,0.001953126396983862
2566220,-0.008728033863008022,-0.020324721932411194,0.9747321605682373,0.22235123813152313,0.0,-0.42187514901161194,9.613285064697266,-0.001953126396983862,0.0,-0.001953126396983862
2570912,-0.008728033863008022,-0.020324721932411194,0.9747321605682373,0.22235123813152313,-0.07812502980232239,-0.42187514901161194,9.613285064697266,-0.001953126396983862,0.0,-0.001953126396983862
2576500,-0.008728033863008022,-0.020324721932411194,0.9747321605682373,0.22235123813152313,-0.07812502980232239,-0.42187514901161194,9.613285064697266,0.001953126396983862,0.001953126396983862,0.0
2581180,-0.008728033863008022,-0.020324721932411194,0.9747321605682373,0.22235123813152313,-0.07812502980232239,-0.42187514901161194,9.613285064697266,0.001953126396983862,0.001953126396983862,0.0
2586260,-0.008728033863008022,-0.020324721932411194,0.9747321605682373,0.22235123813152313,-0.07812502980232239,-0.42187514901161194,9.613285064697266,0.001953126396983862,0.0,0.0
2590964,-0.008728033863008022,-0.020324721932411194,0.9747321605682373,0.22235123813152313,-0.039062514901161194,-0.42187514901161194,9.613285064697266,0.001953126396983862,0.0,0.0
2596384,-0.008728033863008022,-0.020324721932411194,0.9747321605682373,0.22235123813152313,-0.039062514901161194,-0.42187514901161194,9.613285064697266,-0.003906252793967724,-0.001953126396983862,0.0
2601128,-0.008728033863008022,-0.020324721932411194,0.9747321605682373,0.22235123813152313,-0.07812502980232239,-0.38281264901161194,9.648441314697266,-0.003906252793967724,-0.001953126396983862,0.0
2606548,-0.008728033863008022,-0.020324721932411194,0.9747321605682373,0.22235123813152313,-0.07812502980232239,-0.38281264901161194,9.648441314697266,-0.001953126396983862,0.001953126396983862,0.001953126396983862
2611836,-0.008728033863008022,-0.020324721932411194,0.9747321605682373,0.22235123813152313,-0.11328128725290298,-0.42187514901161194,9.613285064697266,-0.001953126396983862,0.001953126396983862,0.001953126396983862
2617620,-0.008728033863008022,-0.020324721932411194,0.9747321605682373,0.22235123813152313,-0.11328128725290298,-0.42187514901161194,9.613285064697266,-0.001953126396983862,0.001953126396983862,0.0
2621964,-0.008728033863008022,-0.020324721932411194,0.9747321605682373,0.22235123813152313,-0.11328128725290298,-0.42187514901161194,9.613285064697266,0.001953126396983862,0.0,-0.001953126396983862
2627412,-0.008666998706758022,-0.020263686776161194,0.9747321605682373,0.22229020297527313,-0.11328128725290298,-0.42187514901161194,9.613285064697266,0.001953126396983862,0.0,-0.001953126396983862
2632848,-0.008666998706758022,-0.020263686776161194,0.9747321605682373,0.22229020297527313,-0.039062514901161194,-0.38281264901161194,9.609378814697266,0.001953126396983862,0.0,-0.001953126396983862
2637532,-0.008666998706758022,-0.020263686776161194,0.9747321605682373,0.22229020297527313,-0.039062514901161194,-0.38281264901161194,9.691410064697266,0.001953126396983862,0.0,-0.001953126396983862
2642964,-0.008666998706758022,-0.020263686776161194,0.9747321605682373,0.22229020297527313,-0.07812502980232239,-0.38281264901161194,9.609378814697266,0.001953126396983862,0.0,-0.001953126396983862
2648256,-0.008666998706758022,-0.020263686776161194,0.9747321605682373,0.22229020297527313,-0.07812502980232239,-0.38281264901161194,9.609378814697266,0.001953126396983862,0.0,-0.001953126396983862
2653544,-0.008666998706758022,-0.020263686776161194,0.9747321605682373,0.22229020297527313,-0.07812502980232239,-0.38281264901161194,9.609378814697266,0.001953126396983862,0.001953126396983862,0.0
2658824,-0.008666998706758022,-0.020263686776161194,0.9747321605682373,0.22229020297527313,-0.07812502980232239,-0.38281264901161194,9.648441314697266,0.001953126396983862,0.001953126396983862,0.0
2663908,-0.008666998706758022,-0.020263686776161194,0.9747321605682373,0.22229020297527313,-0.07812502980232239,-0.38281264901161194,9.648441314697266,0.001953126396983862,-0.001953126396983862,0.0
2669188,-0.008666998706758022,-0.020263686776161194,0.9747321605682373,0.22229020297527313,-0.07812502980232239,-0.38281264901161194,9.609378814697266,0.001953126396983862,-0.001953126396983862,0.0
2675288,-0.008666998706758022,-0.020263686776161194,0.9747321605682373,0.22229020297527313,-0.07812502980232239,-0.38281264901161194,9.609378814697266,0.0,0.001953126396983862,-0.001953126396983862
2679984,-0.008666998706758022,-0.020263686776161194,0.9747321605682373,0.22229020297527313,-0.07812502980232239,-0.38281264901161194,9.582035064697266,0.0,0.001953126396983862,-0.001953126396983862
2685032,-0.008666998706758022,-0.020263686776161194,0.9747321605682373,0.22229020297527313,-0.07812502980232239,-0.38281264901161194,9.582035064697266,0.0,0.001953126396983862,0.003906252793967724
2689720,-0.008666998706758022,-0.020263686776161194,0.9747321605682373,0.22229020297527313,-0.039062514901161194,-0.42187514901161194,9.652347564697266,0.0,0.001953126396983862,0.003906252793967724
2695160,-0.008666998706758022,-0.020263686776161194,0.9747321605682373,0.22229020297527313,-0.039062514901161194,-0.42187514901161194,9.652347564697266,0.0,-0.001953126396983862,0.0
2699920,-0.008666998706758022,-0.020263686776161194,0.9747321605682373,0.22229020297527313,-0.07812502980232239,-0.38281264901161194,9.648441314697266,0.0,-0.001953126396983862,0.0
2705320,-0.008666998706758022,-0.020263686776161194,0.9747321605682373,0.22229020297527313,-0.07812502980232239,-0.38281264901161194,9.648441314697266,0.0,0.001953126396983862,0.0
2710576,-0.008666998706758022,-0.020263686776161194,0.9747321605682373,0.22229020297527313,-0.07812502980232239,-0.42187514901161194,9.613285064697266,0.0,0.001953126396983862,0.0
2716324,-0.008666998706758022,-0.020080581307411194,0.9747321605682373,0.22229020297527313,-0.07812502980232239,-0.42187514901161194,9.613285064697266,0.0,0.001953126396983862,0.0
2720664,-0.008666998706758022,-0.020080581307411194,0.9747321605682373,0.22229020297527313,-0.07812502980232239,-0.42187514901161194,9.613285064697266,0.0,0.0,0.0
2726052,-0.008666998706758022,-0.020080581307411194,0.9747321605682373,0.22229020297527313,-0.07812502980232239,-0.42187514901161194,9.613285064697266,0.0,0.0,0.0
2731424,-0.008666998706758022,-0.020080581307411194,0.9747321605682373,0.22229020297527313,-0.07812502980232239,-0.42187514901161194,9.613285064697266,0.0,0.0,0.0
2736116,-0.008666998706758022,-0.020080581307411194,0.9747321605682373,0.22229020297527313,-0.07812502980232239,-0.38281264901161194,9.609378814697266,0.0,0.0,0.0
2741524,-0.008666998706758022,-0.020080581307411194,0.9747321605682373,0.22229020297527313,-0.07812502980232239,-0.42187514901161194,9.652347564697266,0.0,0.0,0.0
2746212,-0.008666998706758022,-0.020080581307411194,0.9747321605682373,0.22229020297527313,-0.07812502980232239,-0.38281264901161194,9.582035064697266,0.0,0.0,0.0
2752300,-0.008666998706758022,-0.020080581307411194,0.9747321605682373,0.22229020297527313,-0.11328128725290298,-0.38281264901161194,9.582035064697266,0.0,0.0,0.0
2757564,-0.008666998706758022,-0.020080581307411194,0.9747321605682373,0.22229020297527313,-0.07812502980232239,-0.38281264901161194,9.648441314697266,0.0,0.0,0.0
2762680,-0.008666998706758022,-0.020080581307411194,0.9747321605682373,0.22229020297527313,-0.07812502980232239,-0.38281264901161194,9.648441314697266,0.0,0.0,0.0
2768308,-0.008666998706758022,-0.020080581307411194,0.9747321605682373,0.22229020297527313,-0.039062514901161194,-0.38281264901161194,9.648441314697266,0.0,0.0,0.0
2773716,-0.008666998706758022,-0.020080581307411194,0.9747321605682373,0.22229020297527313,-0.039062514901161194,-0.38281264901161194,9.648441314697266,0.0,0.001953126396983862,0.0
2778432,-0.008666998706758022,-0.020080581307411194,0.9747321605682373,0.22229020297527313,-0.039062514901161194,-0.38281264901161194,9.582035064697266,0.0,0.001953126396983862,0.0
2783520,-0.008666998706758022,-0.020080581307411194,0.9747321605682373,0.22229020297527313,-0.039062514901161194,-0.38281264901161194,9.582035064697266,0.0,0.003906252793967724,0.0
2788836,-0.008666998706758022,-0.020080581307411194,0.9747321605682373,0.22229020297527313,-0.07812502980232239,-0.38281264901161194,9.609378814697266,0.0,0.003906252793967724,0.0
2794240,-0.008666998706758022,-0.020080581307411194,0.9747321605682373,0.22229020297527313,-0.07812502980232239,-0.38281264901161194,9.609378814697266,0.001953126396983862,0.001953126396983862,0.0
2798564,-0.008666998706758022,-0.020080581307411194,0.9747321605682373,0.22229020297527313,-0.07812502980232239,-0.38281264901161194,9.609378814697266,0.001953126396983862,0.001953126396983862,0.0
2803608,-0.008666998706758022,-0.020080581307411194,0.9747321605682373,0.22229020297527313,-0.07812502980232239,-0.38281264901161194,9.609378814697266,-0.003906252793967724,0.0,0.0
2808884,-0.008666998706758022,-0.020080581307411194,0.9747321605682373,0.22229020297527313,-0.07812502980232239,-0.38281264901161194,9.609378814697266,-0.003906252793967724,0.0,0.0
2814416,-0.008666998706758022,-0.020080581307411194,0.9747321605682373,0.22229020297527313,-0.07812502980232239,-0.38281264901161194,9.609378814697266,0.0,0.001953126396983862,0.0
2819112,-0.008666998706758022,-0.020080581307411194,0.9747321605682373,0.22229020297527313,-0.07812502980232239,-0.38281264901161194,9.648441314697266,0.0,0.001953126396983862,0.0
2824140,-0.008666998706758022,-0.020080581307411194,0.9747321605682373,0.22229020297527313,-0.07812502980232239,-0.38281264901161194,9.648441314697266,-0.001953126396983862,0.001953126396983862,-0.001953126396983862
2828856,-0.008666998706758022,-0.020080581307411194,0.9747321605682373,0.22229020297527313,-0.07812502980232239,-0.38281264901161194,9.648441314697266,-0.001953126396983862,0.001953126396983862,-0.001953126396983862
2834296,-0.008666998706758022,-0.020080581307411194,0.9747321605682373,0.22229020297527313,-0.07812502980232239,-0.38281264901161194,9.648441314697266,0.001953126396983862,-0.001953126396983862,-0.001953126396983862
2838996,-0.008666998706758022,-0.020080581307411194,0.9747321605682373,0.22229020297527313,-0.07812502980232239,-0.38281264901161194,9.648441314697266,0.001953126396983862,-0.001953126396983862,-0.001953126396983862
2844076,-0.008666998706758022,-0.020080581307411194,0.9747321605682373,0.22229020297527313,-0.07812502980232239,-0.38281264901161194,9.648441314697266,-0.001953126396983862,0.001953126396983862,0.001953126396983862
2849948,-0.008666998706758022,-0.020080581307411194,0.9747321605682373,0.22229020297527313,-0.07812502980232239,-0.38281264901161194,9.609378814697266,-0.001953126396983862,0.001953126396983862,0.001953126396983862
2854636,-0.008666998706758022,-0.020080581307411194,0.9747321605682373,0.22229020297527313,-0.07812502980232239,-0.38281264901161194,9.609378814697266,-0.001953126396983862,0.001953126396983862,0.001953126396983862
2860112,-0.008666998706758022,-0.020080581307411194,0.9747321605682373,0.22229020297527313,-0.07812502980232239,-0.38281264901161194,9.648441314697266,-0.001953126396983862,0.001953126396983862,0.001953126396983862
2865404,-0.008666998706758022,-0.020080581307411194,0.9747321605682373,0.22229020297527313,-0.039062514901161194,-0.38281264901161194,9.609378814697266,-0.001953126396983862,0.001953126396983862,0.001953126396983862
2870480,-0.008666998706758022,-0.020080581307411194,0.9747321605682373,0.22229020297527313,-0.039062514901161194,-0.38281264901161194,9.609378814697266,0.001953126396983862,0.0,-0.001953126396983862
2875752,-0.008666998706758022,-0.020080581307411194,0.9747321605682373,0.22229020297527313,-0.07812502980232239,-0.38281264901161194,9.648441314697266,0.001953126396983862,0.0,-0.001953126396983862
2880812,-0.008666998706758022,-0.020080581307411194,0.9747321605682373,0.22229020297527313,-0.07812502980232239,-0.38281264901161194,9.648441314697266,0.001953126396983862,0.001953126396983862,0.0
2885508,-0.008666998706758022,-0.020080581307411194,0.9747321605682373,0.22229020297527313,-0.07812502980232239,-0.38281264901161194,9.609378814697266,0.001953126396983862,0.001953126396983862,0.0
2890936,-0.008666998706758022,-0.020080581307411194,0.9747321605682373,0.22229020297527313,-0.07812502980232239,-0.38281264901161194,9.609378814697266,0.001953126396983862,0.001953126396983862,0.0
2896240,-0.008666998706758022,-0.020080581307411194,0.9747321605682373,0.22229020297527313,-0.07812502980232239,-0.38281264901161194,9.542972564697266,0.001953126396983862,0.001953126396983862,0.0
2901652,-0.008666998706758022,-0.020080581307411194,0.9747321605682373,0.22229020297527313,-0.07812502980232239,-0.38281264901161194,9.542972564697266,0.0,-0.005859379190951586,0.0
2906932,-0.008666998706758022,-0.020080581307411194,0.9747321605682373,0.22229020297527313,-0.039062514901161194,-0.42187514901161194,9.652347564697266,0.0,-0.005859379190951586,0.0
2913096,-0.008666998706758022,-0.020080581307411194,0.9747321605682373,0.22229020297527313,-0.039062514901161194,-0.42187514901161194,9.652347564697266,0.001953126396983862,-0.001953126396983862,-0.001953126396983862
2917812,-0.008666998706758022,-0.020080581307411194,0.9747321605682373,0.22229020297527313,-0.11328128725290298,-0.38281264901161194,9.648441314697266,0.001953126396983862,-0.001953126396983862,-0.001953126396983862
2922880,-0.008666998706758022,-0.020080581307411194,0.9747321605682373,0.22229020297527313,-0.11328128725290298,-0.38281264901161194,9.648441314697266,-0.003906252793967724,0.0,0.0
2927240,-0.008666998706758022,-0.020080581307411194,0.9747321605682373,0.22229020297527313,-0.07812502980232239,-0.38281264901161194,9.648441314697266,-0.003906252793967724,0.0,0.0
2932656,-0.008666998706758022,-0.020080581307411194,0.9747321605682373,0.22229020297527313,-0.07812502980232239,-0.38281264901161194,9.648441314697266,0.0,0.0,-0.001953126396983862
2937348,-0.008666998706758022,-0.020080581307411194,0.9747321605682373,0.22229020297527313,-0.039062514901161194,-0.42187514901161194,9.613285064697266,0.0,0.0,-0.001953126396983862
2942464,-0.008666998706758022,-0.020080581307411194,0.9747321605682373,0.22229020297527313,-0.039062514901161194,-0.42187514901161194,9.613285064697266,0.0,-0.001953126396983862,-0.001953126396983862
2947268,-0.008666998706758022,-0.020080581307411194,0.9747321605682373,0.22229020297527313,-0.07812502980232239,-0.42187514901161194,9.613285064697266,0.0,-0.001953126396983862,-0.001953126396983862
2952468,-0.008666998706758022,-0.020080581307411194,0.9747321605682373,0.22229020297527313,-0.07812502980232239,-0.42187514901161194,9.613285064697266,0.001953126396983862,0.001953126396983862,0.001953126396983862
2957744,-0.008666998706758022,-0.020080581307411194,0.9747321605682373,0.22229020297527313,-0.11328128725290298,-0.38281264901161194,9.609378814697266,0.001953126396983862,0.001953126396983862,0.001953126396983862
2963176,-0.008666998706758022,-0.020080581307411194,0.9747321605682373,0.22229020297527313,-0.11328128725290298,-0.38281264901161194,9.609378814697266,0.001953126396983862,0.003906252793967724,0.0
2967900,-0.008666998706758022,-0.020080581307411194,0.9747321605682373,0.22229020297527313,-0.039062514901161194,-0.42187514901161194,9.613285064697266,0.001953126396983862,0.003906252793967724,0.0
2973344,-0.008666998706758022,-0.020080581307411194,0.9747321605682373,0.22229020297527313,-0.039062514901161194,-0.42187514901161194,9.613285064697266,-0.001953126396983862,0.001953126396983862,-0.001953126396983862
2977700,-0.008666998706758022,-0.020080581307411194,0.9747321605682373,0.22229020297527313,-0.07812502980232239,-0.42187514901161194,9.652347564697266,-0.001953126396983862,0.001953126396983862,-0.001953126396983862
2982764,-0.008666998706758022,-0.020080581307411194,0.9747321605682373,0.22229020297527313,-0.07812502980232239,-0.42187514901161194,9.652347564697266,0.0,0.001953126396983862,0.0
2989120,-0.008666998706758022,-0.020080581307411194,0.9747321605682373,0.22229020297527313,-0.07812502980232239,-0.38281264901161194,9.648441314697266,0.0,0.001953126396983862,0.0
2994356,-0.008666998706758022,-0.020080581307411194,0.9747321605682373,0.22229020297527313,-0.07812502980232239,-0.38281264901161194,9.648441314697266,0.0,0.001953126396983862,0.0
2999412,-0.008666998706758022,-0.020080581307411194,0.9747321605682373,0.22229020297527313,-0.07812502980232239,-0.38281264901161194,9.648441314697266,0.001953126396983862,0.0,-0.001953126396983862
3005032,-0.008666998706758022,-0.020080581307411194,0.9747321605682373,0.22229020297527313,-0.039062514901161194,-0.38281264901161194,9.609378814697266,0.001953126396983862,0.0,-0.001953126396983862
3010448,-0.008666998706758022,-0.020080581307411194,0.9747321605682373,0.22229020297527313,-0.039062514901161194,-0.38281264901161194,9.609378814697266,-0.003906252793967724,0.0,0.0
3015768,-0.008666998706758022,-0.020080581307411194,0.9747321605682373,0.22229020297527313,-0.039062514901161194,-0.42187514901161194,9.652347564697266,-0.003906252793967724,0.0,0.0
3020832,-0.008666998706758022,-0.020080581307411194,0.9747321605682373,0.22229020297527313,-0.039062514901161194,-0.42187514901161194,9.652347564697266,-0.003906252793967724,0.0,0.0
3025152,-0.008666998706758022,-0.020080581307411194,0.9747321605682373,0.22229020297527313,-0.07812502980232239,-0.38281264901161194,9.609378814697266,-0.003906252793967724,0.0,0.0
3030364,-0.008666998706758022,-0.020080581307411194,0.9747321605682373,0.22229020297527313,-0.07812502980232239,-0.38281264901161194,9.609378814697266,-0.003906252793967724,0.0,0.0
3035156,-0.008666998706758022,-0.020080581307411194,0.9747321605682373,0.22229020297527313,-0.07812502980232239,-0.38281264901161194,9.648441314697266,-0.003906252793967724,0.0,0.0
3040636,-0.008666998706758022,-0.020080581307411194,0.9747321605682373,0.22229020297527313,-0.07812502980232239,-0.38281264901161194,9.648441314697266,0.001953126396983862,0.0,0.0
3045332,-0.008666998706758022,-0.020080581307411194,0.9747321605682373,0.22229020297527313,-0.07812502980232239,-0.38281264901161194,9.609378814697266,0.001953126396983862,0.0,0.0
3050356,-0.008666998706758022,-0.020080581307411194,0.9747321605682373,0.22229020297527313,-0.07812502980232239,-0.38281264901161194,9.609378814697266,-0.001953126396983862,0.001953126396983862,0.001953126396983862
3055648,-0.008666998706758022,-0.020080581307411194,0.9747321605682373,0.22229020297527313,-0.07812502980232239,-0.38281264901161194,9.582035064697266,-0.001953126396983862,0.001953126396983862,0.001953126396983862
3060720,-0.008666998706758022,-0.020080581307411194,0.9747321605682373,0.22229020297527313,-0.07812502980232239,-0.38281264901161194,9.582035064697266,0.0,-0.003906252793967724,0.0
3066000,-0.008666998706758022,-0.020080581307411194,0.9747321605682373,0.22229020297527313,-0.039062514901161194,-0.38281264901161194,9.609378814697266,0.0,-0.003906252793967724,0.0
3071392,-0.008666998706758022,-0.020080581307411194,0.9747321605682373,0.22229020297527313,-0.039062514901161194,-0.38281264901161194,9.609378814697266,-0.001953126396983862,0.0,0.0
3075740,-0.008666998706758022,-0.020080581307411194,0.9747321605682373,0.22229020297527313,-0.07812502980232239,-0.38281264901161194,9.691410064697266,-0.001953126396983862,0.0,0.0
3081436,-0.008666998706758022,-0.020080581307411194,0.9747321605682373,0.22229020297527313,-0.07812502980232239,-0.38281264901161194,9.691410064697266,0.003906252793967724,0.0,0.0
3086804,-0.008666998706758022,-0.020080581307411194,0.9747321605682373,0.22229020297527313,-0.11328128725290298,-0.42187514901161194,9.687503814697266,0.003906252793967724,0.0,0.0
3092588,-0.008605963550508022,-0.019897475838661194,0.9747321605682373,0.22235123813152313,-0.11328128725290298,-0.42187514901161194,9.687503814697266,0.003906252793967724,0.0,0.0
3097748,-0.008605963550508022,-0.019897475838661194,0.9747321605682373,0.22235123813152313,-0.11328128725290298,-0.42187514901161194,9.687503814697266,0.001953126396983862,0.0,-0.001953126396983862
3102996,-0.008605963550508022,-0.019897475838661194,0.9747321605682373,0.22235123813152313,-0.07812502980232239,-0.38281264901161194,9.609378814697266,0.001953126396983862,0.0,-0.001953126396983862
3109100,-0.008605963550508022,-0.019897475838661194,0.9747321605682373,0.22235123813152313,-0.07812502980232239,-0.38281264901161194,9.582035064697266,0.001953126396983862,0.0,-0.001953126396983862
3113816,-0.008605963550508022,-0.019897475838661194,0.9747321605682373,0.22235123813152313,-0.11328128725290298,-0.38281264901161194,9.648441314697266,0.001953126396983862,0.0,-0.001953126396983862
3118884,-0.008605963550508022,-0.019897475838661194,0.9747321605682373,0.22235123813152313,-0.11328128725290298,-0.38281264901161194,9.648441314697266,0.003906252793967724,-0.001953126396983862,0.001953126396983862
3123584,-0.008605963550508022,-0.019897475838661194,0.9747321605682373,0.22235123813152313,-0.11328128725290298,-0.38281264901161194,9.609378814697266,0.003906252793967724,-0.001953126396983862,0.001953126396983862
3128676,-0.008605963550508022,-0.019897475838661194,0.9747321605682373,0.22235123813152313,-0.11328128725290298,-0.38281264901161194,9.609378814697266,0.003906252793967724,0.001953126396983862,0.001953126396983862
3133960,-0.008605963550508022,-0.019897475838661194,0.9747321605682373,0.22235123813152313,-0.07812502980232239,-0.42187514901161194,9.652347564697266,0.003906252793967724,0.001953126396983862,0.001953126396983862
3139528,-0.008605963550508022,-0.019897475838661194,0.9747321605682373,0.22235123813152313,-0.07812502980232239,-0.42187514901161194,9.652347564697266,-0.001953126396983862,0.003906252793967724,-0.001953126396983862
3144224,-0.008605963550508022,-0.019897475838661194,0.9747321605682373,0.22235123813152313,-0.07812502980232239,-0.42187514901161194,9.613285064697266,-0.001953126396983862,0.003906252793967724,-0.001953126396983862
3149348,-0.008605963550508022,-0.019897475838661194,0.9747321605682373,0.22235123813152313,-0.07812502980232239,-0.42187514901161194,9.613285064697266,0.0,0.0,-0.001953126396983862
3154616,-0.008605963550508022,-0.019897475838661194,0.9747321605682373,0.22235123813152313,-0.07812502980232239,-0.38281264901161194,9.582035064697266,0.0,0.0,-0.001953126396983862
3159676,-0.008605963550508022,-0.019897475838661194,0.9747321605682373,0.22235123813152313,-0.07812502980232239,-0.38281264901161194,9.582035064697266,-0.001953126396983862,0.001953126396983862,0.0
3164968,-0.008605963550508022,-0.019897475838661194,0.9747321605682373,0.22235123813152313,-0.11328128725290298,-0.38281264901161194,9.648441314697266,-0.001953126396983862,0.001953126396983862,0.0
3170416,-0.008605963550508022,-0.019897475838661194,0.9747321605682373,0.22235123813152313,-0.11328128725290298,-0.38281264901161194,9.648441314697266,-0.003906252793967724,-0.001953126396983862,0.0
3174764,-0.008605963550508022,-0.019897475838661194,0.9747321605682373,0.22235123813152313,-0.07812502980232239,-0.38281264901161194,9.609378814697266,-0.003906252793967724,-0.001953126396983862,0.0
3180292,-0.008605963550508022,-0.019897475838661194,0.9747321605682373,0.22235123813152313,-0.07812502980232239,-0.38281264901161194,9.609378814697266,-0.003906252793967724,0.0,0.0
3184988,-0.008605963550508022,-0.019897475838661194,0.9747321605682373,0.22235123813152313,-0.07812502980232239,-0.38281264901161194,9.648441314697266,-0.003906252793967724,0.0,0.0
3190764,-0.008605963550508022,-0.019897475838661194,0.9747321605682373,0.22235123813152313,-0.07812502980232239,-0.38281264901161194,9.648441314697266,0.005859379190951586,-0.003906252793967724,0.0
3195652,-0.008605963550508022,-0.019897475838661194,0.9747321605682373,0.22235123813152313,-0.07812502980232239,-0.38281264901161194,9.648441314697266,0.005859379190951586,-0.003906252793967724,0.0
3201076,-0.008605963550508022,-0.019775405526161194,0.9747321605682373,0.22235123813152313,-0.07812502980232239,-0.38281264901161194,9.648441314697266,0.005859379190951586,-0.003906252793967724,0.0
3206868,-0.008605963550508022,-0.019775405526161194,0.9747321605682373,0.22235123813152313,-0.11328128725290298,-0.38281264901161194,9.691410064697266,0.005859379190951586,-0.003906252793967724,0.0
3212136,-0.008605963550508022,-0.019775405526161194,0.9747321605682373,0.22235123813152313,-0.07812502980232239,-0.38281264901161194,9.648441314697266,0.005859379190951586,-0.003906252793967724,0.0
3217476,-0.008605963550508022,-0.019775405526161194,0.9747321605682373,0.22235123813152313,-0.07812502980232239,-0.38281264901161194,9.648441314697266,0.001953126396983862,0.0,0.0
3221824,-0.008605963550508022,-0.019775405526161194,0.9747321605682373,0.22235123813152313,-0.07812502980232239,-0.38281264901161194,9.648441314697266,0.001953126396983862,0.0,0.0
3227396,-0.008605963550508022,-0.019775405526161194,0.9747321605682373,0.22235123813152313,-0.07812502980232239,-0.42187514901161194,9.652347564697266,0.001953126396983862,0.0,0.0
3232100,-0.008605963550508022,-0.019775405526161194,0.9747321605682373,0.22235123813152313,-0.07812502980232239,-0.42187514901161194,9.613285064697266,0.001953126396983862,0.0,0.0
3237164,-0.008605963550508022,-0.019775405526161194,0.9747321605682373,0.22235123813152313,-0.07812502980232239,-0.42187514901161194,9.613285064697266,-0.003906252793967724,-0.001953126396983862,0.0
3241868,-0.008605963550508022,-0.019775405526161194,0.9747321605682373,0.22235123813152313,-0.07812502980232239,-0.38281264901161194,9.582035064697266,-0.003906252793967724,-0.001953126396983862,0.0
3246996,-0.008605963550508022,-0.019775405526161194,0.9747321605682373,0.22235123813152313,-0.07812502980232239,-0.38281264901161194,9.582035064697266,-0.003906252793967724,0.001953126396983862,0.0
3252276,-0.008605963550508022,-0.019775405526161194,0.9747321605682373,0.22235123813152313,-0.07812502980232239,-0.38281264901161194,9.648441314697266,-0.003906252793967724,0.001953126396983862,0.0
3257332,-0.008605963550508022,-0.019775405526161194,0.9747321605682373,0.22235123813152313,-0.07812502980232239,-0.38281264901161194,9.648441314697266,-0.003906252793967724,0.001953126396983862,0.0
3262608,-0.008605963550508022,-0.019775405526161194,0.9747321605682373,0.22235123813152313,-0.039062514901161194,-0.38281264901161194,9.648441314697266,-0.003906252793967724,0.001953126396983862,0.0
3268136,-0.008605963550508022,-0.019775405526161194,0.9747321605682373,0.22235123813152313,-0.039062514901161194,-0.38281264901161194,9.648441314697266,0.0,-0.001953126396983862,-0.001953126396983862
3272480,-0.008605963550508022,-0.019775405526161194,0.9747321605682373,0.22235123813152313,-0.039062514901161194,-0.38281264901161194,9.648441314697266,0.0,-0.001953126396983862,-0.001953126396983862
3277640,-0.008605963550508022,-0.019775405526161194,0.9747321605682373,0.22235123813152313,-0.039062514901161194,-0.38281264901161194,9.648441314697266,0.0,0.001953126396983862,-0.001953126396983862
3282380,-0.008605963550508022,-0.019775405526161194,0.9747321605682373,0.22235123813152313,-0.039062514901161194,-0.42187514901161194,9.613285064697266,0.0,0.001953126396983862,-0.001953126396983862
3287516,-0.008605963550508022,-0.019775405526161194,0.9747321605682373,0.22235123813152313,-0.039062514901161194,-0.42187514901161194,9.613285064697266,0.001953126396983862,0.0,0.0
3292208,-0.008605963550508022,-0.019775405526161194,0.9747321605682373,0.22235123813152313,-0.11328128725290298,-0.42187514901161194,9.613285064697266,0.001953126396983862,0.0,0.0
3297240,-0.008605963550508022,-0.019775405526161194,0.9747321605682373,0.22235123813152313,-0.11328128725290298,-0.42187514901161194,9.613285064697266,-0.001953126396983862,0.0,0.0
3302580,-0.008605963550508022,-0.019775405526161194,0.9747321605682373,0.22235123813152313,-0.039062514901161194,-0.38281264901161194,9.648441314697266,-0.001953126396983862,0.0,0.0
3307988,-0.008605963550508022,-0.019775405526161194,0.9747321605682373,0.22235123813152313,-0.039062514901161194,-0.38281264901161194,9.648441314697266,0.0,-0.001953126396983862,0.001953126396983862
3312816,-0.008605963550508022,-0.019775405526161194,0.9747321605682373,0.22235123813152313,-0.07812502980232239,-0.38281264901161194,9.648441314697266,0.0,-0.001953126396983862,0.001953126396983862
3317908,-0.008605963550508022,-0.019775405526161194,0.9747321605682373,0.22235123813152313,-0.07812502980232239,-0.38281264901161194,9.648441314697266,-0.001953126396983862,0.001953126396983862,-0.001953126396983862
3322336,-0.008605963550508022,-0.019775405526161194,0.9747321605682373,0.22235123813152313,-0.07812502980232239,-0.38281264901161194,9.648441314697266,-0.001953126396983862,0.001953126396983862,-0.001953126396983862
3327484,-0.008605963550508022,-0.019775405526161194,0.9747321605682373,0.22235123813152313,-0.07812502980232239,-0.38281264901161194,9.648441314697266,0.0,0.0,0.0
3332180,-0.008605963550508022,-0.019775405526161194,0.9747321605682373,0.22235123813152313,-0.07812502980232239,-0.38281264901161194,9.609378814697266,0.0,0.0,0.0
3337236,-0.008605963550508022,-0.019775405526161194,0.9747321605682373,0.22235123813152313,-0.07812502980232239,-0.38281264901161194,9.609378814697266,-0.001953126396983862,0.0,-0.001953126396983862
3341988,-0.008605963550508022,-0.019775405526161194,0.9747321605682373,0.22235123813152313,-0.07812502980232239,-0.42187514901161194,9.613285064697266,-0.001953126396983862,0.0,-0.001953126396983862
3347052,-0.008605963550508022,-0.019775405526161194,0.9747321605682373,0.22235123813152313,-0.07812502980232239,-0.42187514901161194,9.613285064697266,0.001953126396983862,0.0,0.001953126396983862
3352316,-0.008605963550508022,-0.019775405526161194,0.9747321605682373,0.22235123813152313,-0.11328128725290298,-0.42187514901161194,9.613285064697266,0.001953126396983862,0.0,0.001953126396983862
3357432,-0.008605963550508022,-0.019775405526161194,0.9747321605682373,0.22235123813152313,-0.11328128725290298,-0.42187514901161194,9.613285064697266,0.001953126396983862,0.0,0.001953126396983862
3362808,-0.008605963550508022,-0.019775405526161194,0.9747321605682373,0.22235123813152313,-0.11328128725290298,-0.38281264901161194,9.609378814697266,0.001953126396983862,0.0,0.001953126396983862
3367916,-0.008605963550508022,-0.019775405526161194,0.9747321605682373,0.22235123813152313,-0.11328128725290298,-0.38281264901161194,9.609378814697266,-0.003906252793967724,0.0,0.0
3372632,-0.008605963550508022,-0.019775405526161194,0.9747321605682373,0.22235123813152313,-0.11328128725290298,-0.38281264901161194,9.582035064697266,-0.003906252793967724,0.0,0.0
3377680,-0.008605963550508022,-0.019775405526161194,0.9747321605682373,0.22235123813152313,-0.11328128725290298,-0.38281264901161194,9.582035064697266,0.0,-0.001953126396983862,0.0
3382928,-0.008605963550508022,-0.019775405526161194,0.9747321605682373,0.22235123813152313,-0.07812502980232239,-0.42187514901161194,9.578128814697266,0.0,-0.001953126396983862,0.0
3388836,-0.008605963550508022,-0.019714370369911194,0.9747321605682373,0.22235123813152313,-0.07812502980232239,-0.42187514901161194,9.578128814697266,0.0,-0.001953126396983862,0.0
3393872,-0.008605963550508022,-0.019714370369911194,0.9747321605682373,0.22235123813152313,-0.07812502980232239,-0.42187514901161194,9.578128814697266,0.001953126396983862,0.001953126396983862,0.001953126396983862
3398768,-0.008605963550508022,-0.019714370369911194,0.9747321605682373,0.22235123813152313,-0.039062514901161194,-0.38281264901161194,9.609378814697266,0.001953126396983862,0.001953126396983862,0.001953126396983862
3404212,-0.008605963550508022,-0.019714370369911194,0.9747321605682373,0.22235123813152313,-0.07812502980232239,-0.38281264901161194,9.609378814697266,0.001953126396983862,0.001953126396983862,0.001953126396983862
3409860,-0.008605963550508022,-0.019714370369911194,0.9747321605682373,0.22235123813152313,-0.07812502980232239,-0.38281264901161194,9.648441314697266,0.001953126396983862,0.001953126396983862,0.001953126396983862
3414968,-0.008605963550508022,-0.019714370369911194,0.9747321605682373,0.22235123813152313,-0.07812502980232239,-0.38281264901161194,9.648441314697266,0.001953126396983862,0.0,-0.001953126396983862
3419692,-0.008605963550508022,-0.019714370369911194,0.9747321605682373,0.22235123813152313,-0.07812502980232239,-0.38281264901161194,9.648441314697266,0.001953126396983862,0.0,-0.001953126396983862
3424804,-0.008605963550508022,-0.019714370369911194,0.9747321605682373,0.22235123813152313,-0.07812502980232239,-0.38281264901161194,9.648441314697266,0.0,-0.001953126396983862,-0.001953126396983862
3430092,-0.008605963550508022,-0.019714370369911194,0.9747321605682373,0.22235123813152313,-0.07812502980232239,-0.38281264901161194,9.609378814697266,0.0,-0.001953126396983862,-0.001953126396983862
3435772,-0.008605963550508022,-0.019714370369911194,0.9747321605682373,0.22235123813152313,-0.07812502980232239,-0.38281264901161194,9.609378814697266,0.001953126396983862,-0.001953126396983862,0.0
3441044,-0.008605963550508022,-0.019714370369911194,0.9747321605682373,0.22235123813152313,-0.07812502980232239,-0.42187514901161194,9.613285064697266,0.001953126396983862,-0.001953126396983862,0.0
3446464,-0.008605963550508022,-0.019714370369911194,0.9747321605682373,0.22235123813152313,-0.07812502980232239,-0.42187514901161194,9.613285064697266,0.0,0.0,0.0
3450824,-0.008605963550508022,-0.019714370369911194,0.9747321605682373,0.22235123813152313,-0.039062514901161194,-0.38281264901161194,9.609378814697266,0.0,0.0,0.0
3456736,-0.008605963550508022,-0.019714370369911194,0.9747321605682373,0.22235123813152313,-0.039062514901161194,-0.38281264901161194,9.609378814697266,0.0,0.0,0.001953126396983862
3461068,-0.008605963550508022,-0.019714370369911194,0.9747321605682373,0.22235123813152313,-0.07812502980232239,-0.38281264901161194,9.648441314697266,0.0,0.0,0.001953126396983862
3466144,-0.008605963550508022,-0.019714370369911194,0.9747321605682373,0.22235123813152313,-0.07812502980232239,-0.38281264901161194,9.648441314697266,-0.001953126396983862,0.001953126396983862,0.0
3470540,-0.008605963550508022,-0.019714370369911194,0.9747321605682373,0.22235123813152313,-0.07812502980232239,-0.42187514901161194,9.539066314697266,-0.001953126396983862,0.001953126396983862,0.0
3475596,-0.008605963550508022,-0.019714370369911194,0.9747321605682373,0.22235123813152313,-0.07812502980232239,-0.42187514901161194,9.539066314697266,0.0,0.001953126396983862,0.0
3480272,-0.008605963550508022,-0.019714370369911194,0.9747321605682373,0.22235123813152313,-0.07812502980232239,-0.42187514901161194,9.578128814697266,0.0,0.001953126396983862,0.0
3486032,-0.008605963550508022,-0.019714370369911194,0.9747321605682373,0.22235123813152313,-0.07812502980232239,-0.42187514901161194,9.578128814697266,-0.001953126396983862,0.001953126396983862,0.0
3490728,-0.008605963550508022,-0.019714370369911194,0.9747321605682373,0.22235123813152313,-0.07812502980232239,-0.38281264901161194,9.609378814697266,-0.001953126396983862,0.001953126396983862,0.0
3496408,-0.008605963550508022,-0.019714370369911194,0.9747321605682373,0.22235123813152313,-0.07812502980232239,-0.38281264901161194,9.609378814697266,0.0,0.001953126396983862,0.001953126396983862
3502288,-0.008605963550508022,-0.019714370369911194,0.9747321605682373,0.22235123813152313,-0.07812502980232239,-0.42187514901161194,9.652347564697266,0.0,0.001953126396983862,0.001953126396983862
3507760,-0.008605963550508022,-0.019592300057411194,0.9747321605682373,0.22235123813152313,-0.07812502980232239,-0.42187514901161194,9.652347564697266,0.0,0.001953126396983862,0.001953126396983862
3513188,-0.008605963550508022,-0.019592300057411194,0.9747321605682373,0.22235123813152313,-0.07812502980232239,-0.38281264901161194,9.648441314697266,0.0,0.001953126396983862,0.001953126396983862
3517548,-0.008605963550508022,-0.019592300057411194,0.9747321605682373,0.22235123813152313,-0.07812502980232239,-0.38281264901161194,9.648441314697266,0.0,0.001953126396983862,0.001953126396983862
3523472,-0.008605963550508022,-0.019592300057411194,0.9747321605682373,0.22235123813152313,-0.07812502980232239,-0.38281264901161194,9.648441314697266,-0.003906252793967724,0.003906252793967724,0.0
3528864,-0.008605963550508022,-0.019592300057411194,0.9747321605682373,0.22235123813152313,-0.07812502980232239,-0.38281264901161194,9.609378814697266,-0.003906252793967724,0.003906252793967724,0.0
3534588,-0.008605963550508022,-0.019592300057411194,0.9747321605682373,0.22235123813152313,-0.07812502980232239,-0.38281264901161194,9.609378814697266,0.0,0.0,0.001953126396983862
3539864,-0.008605963550508022,-0.019592300057411194,0.9747321605682373,0.22235123813152313,-0.11328128725290298,-0.38281264901161194,9.648441314697266,0.0,0.0,0.001953126396983862
3545272,-0.008605963550508022,-0.019592300057411194,0.9747321605682373,0.22235123813152313,-0.11328128725290298,-0.38281264901161194,9.648441314697266,0.0,-0.001953126396983862,-0.001953126396983862
3549968,-0.008605963550508022,-0.019592300057411194,0.9747321605682373,0.22235123813152313,-0.07812502980232239,-0.42187514901161194,9.652347564697266,0.0,-0.001953126396983862,-0.001953126396983862
3555440,-0.008605963550508022,-0.019592300057411194,0.9747321605682373,0.22235123813152313,-0.07812502980232239,-0.42187514901161194,9.652347564697266,-0.001953126396983862,0.0,0.0
3560172,-0.008605963550508022,-0.019592300057411194,0.9747321605682373,0.22235123813152313,-0.11328128725290298,-0.42187514901161194,9.652347564697266,-0.001953126396983862,0.0,0.0
3565612,-0.008605963550508022,-0.019592300057411194,0.9747321605682373,0.22235123813152313,-0.11328128725290298,-0.42187514901161194,9.652347564697266,-0.003906252793967724,0.001953126396983862,-0.001953126396983862
3569956,-0.008605963550508022,-0.019592300057411194,0.9747321605682373,0.22235123813152313,-0.11328128725290298,-0.42187514901161194,9.687503814697266,-0.003906252793967724,0.001953126396983862,-0.001953126396983862
3575568,-0.008605963550508022,-0.019592300057411194,0.9747321605682373,0.22235123813152313,-0.11328128725290298,-0.42187514901161194,9.687503814697266,-0.001953126396983862,0.001953126396983862,0.0
3580836,-0.008605963550508022,-0.019592300057411194,0.9747321605682373,0.22235123813152313,-0.039062514901161194,-0.42187514901161194,9.652347564697266,-0.001953126396983862,0.001953126396983862,0.0
3586664,-0.008666998706758022,-0.019531264901161194,0.9747321605682373,0.22235123813152313,-0.039062514901161194,-0.42187514901161194,9.652347564697266,-0.001953126396983862,0.001953126396983862,0.0
3591824,-0.008666998706758022,-0.019531264901161194,0.9747321605682373,0.22235123813152313,-0.039062514901161194,-0.42187514901161194,9.652347564697266,0.0,0.0,0.0
3596512,-0.008666998706758022,-0.019531264901161194,0.9747321605682373,0.22235123813152313,-0.07812502980232239,-0.38281264901161194,9.609378814697266,0.0,0.0,0.0
3602044,-0.008666998706758022,-0.019531264901161194,0.9747321605682373,0.22235123813152313,-0.07812502980232239,-0.42187514901161194,9.652347564697266,0.0,0.0,0.0
3607656,-0.008666998706758022,-0.019531264901161194,0.9747321605682373,0.22235123813152313,-0.07812502980232239,-0.38281264901161194,9.648441314697266,0.0,0.0,0.0
3612700,-0.008666998706758022,-0.019531264901161194,0.9747321605682373,0.22235123813152313,-0.07812502980232239,-0.38281264901161194,9.648441314697266,0.0,0.0,0.0
3617436,-0.008666998706758022,-0.019531264901161194,0.9747321605682373,0.22235123813152313,-0.07812502980232239,-0.38281264901161194,9.609378814697266,0.0,0.0,0.0
3622572,-0.008666998706758022,-0.019531264901161194,0.9747321605682373,0.22235123813152313,-0.07812502980232239,-0.38281264901161194,9.609378814697266,0.0,0.0,0.0
3627836,-0.008666998706758022,-0.019531264901161194,0.9747321605682373,0.22235123813152313,-0.07812502980232239,-0.38281264901161194,9.609378814697266,0.0,0.0,0.0
3632884,-0.008666998706758022,-0.019531264901161194,0.9747321605682373,0.22235123813152313,-0.07812502980232239,-0.38281264901161194,9.609378814697266,0.0,0.0,0.0
3637572,-0.008666998706758022,-0.019531264901161194,0.9747321605682373,0.22235123813152313,-0.07812502980232239,-0.38281264901161194,9.609378814697266,0.0,0.0,0.0
3643012,-0.008666998706758022,-0.019531264901161194,0.9747321605682373,0.22235123813152313,-0.07812502980232239,-0.38281264901161194,9.609378814697266,0.0,0.0,0.0
3647712,-0.008666998706758022,-0.019531264901161194,0.9747321605682373,0.22235123813152313,-0.039062514901161194,-0.38281264901161194,9.648441314697266,0.0,0.0,0.0
3653264,-0.008666998706758022,-0.019531264901161194,0.9747321605682373,0.22235123813152313,-0.039062514901161194,-0.38281264901161194,9.648441314697266,0.0,0.0,0.0
3658004,-0.008666998706758022,-0.019531264901161194,0.9747321605682373,0.22235123813152313,-0.07812502980232239,-0.38281264901161194,9.609378814697266,0.0,0.0,0.0
3663044,-0.008666998706758022,-0.019531264901161194,0.9747321605682373,0.22235123813152313,-0.07812502980232239,-0.38281264901161194,9.609378814697266,0.0,0.0,0.0
3667740,-0.008666998706758022,-0.019531264901161194,0.9747321605682373,0.22235123813152313,-0.07812502980232239,-0.42187514901161194,9.687503814697266,0.0,0.0,0.0
3672832,-0.008666998706758022,-0.019531264901161194,0.9747321605682373,0.22235123813152313,-0.07812502980232239,-0.42187514901161194,9.687503814697266,0.0,0.0,0.0
3678192,-0.008666998706758022,-0.019531264901161194,0.9747321605682373,0.22235123813152313,-0.11328128725290298,-0.38281264901161194,9.648441314697266,0.0,0.0,0.0
3683592,-0.008666998706758022,-0.019531264901161194,0.9747321605682373,0.22235123813152313,-0.11328128725290298,-0.38281264901161194,9.648441314697266,0.0,0.0,0.0
3688320,-0.008666998706758022,-0.019531264901161194,0.9747321605682373,0.22235123813152313,-0.07812502980232239,-0.38281264901161194,9.609378814697266,0.0,0.0,0.0
3693968,-0.008666998706758022,-0.019531264901161194,0.9747321605682373,0.22235123813152313,-0.07812502980232239,-0.38281264901161194,9.609378814697266,0.0,0.0,0.0
3700368,-0.008666998706758022,-0.019531264901161194,0.9747321605682373,0.22235123813152313,-0.07812502980232239,-0.42187514901161194,9.652347564697266,0.0,0.0,0.0
3705140,-0.008666998706758022,-0.019531264901161194,0.9747321605682373,0.22235123813152313,-0.07812502980232239,-0.42187514901161194,9.652347564697266,0.0,0.0,0.0
3710876,-0.008666998706758022,-0.019531264901161194,0.9747321605682373,0.22235123813152313,-0.07812502980232239,-0.42187514901161194,9.652347564697266,0.0,0.0,0.0
3715576,-0.008666998706758022,-0.019531264901161194,0.9747321605682373,0.22235123813152313,-0.07812502980232239,-0.42187514901161194,9.613285064697266,0.0,0.0,0.0
3720772,-0.008666998706758022,-0.019531264901161194,0.9747321605682373,0.22235123813152313,-0.07812502980232239,-0.42187514901161194,9.613285064697266,0.0,0.0,0.0
3726032,-0.008666998706758022,-0.019531264901161194,0.9747321605682373,0.22235123813152313,-0.07812502980232239,-0.42187514901161194,9.652347564697266,0.0,0.0,0.0
3731176,-0.008666998706758022,-0.019531264901161194,0.9747321605682373,0.22235123813152313,-0.07812502980232239,-0.42187514901161194,9.652347564697266,0.0,0.0,0.0
3736424,-0.008666998706758022,-0.019531264901161194,0.9747321605682373,0.22235123813152313,-0.07812502980232239,-0.38281264901161194,9.609378814697266,0.0,0.0,0.0
3742184,-0.008666998706758022,-0.019531264901161194,0.9747321605682373,0.22235123813152313,-0.07812502980232239,-0.42187514901161194,9.613285064697266,0.0,0.0,0.0
3746876,-0.008666998706758022,-0.019531264901161194,0.9747321605682373,0.22235123813152313,-0.039062514901161194,-0.38281264901161194,9.609378814697266,0.0,0.0,0.0
3752336,-0.008666998706758022,-0.019531264901161194,0.9747321605682373,0.22235123813152313,-0.039062514901161194,-0.38281264901161194,9.609378814697266,0.0,0.0,0.0
3757612,-0.008666998706758022,-0.019531264901161194,0.9747321605682373,0.22235123813152313,-0.07812502980232239,-0.38281264901161194,9.648441314697266,0.0,0.0,0.0
3761944,-0.008666998706758022,-0.019531264901161194,0.9747321605682373,0.22235123813152313,-0.07812502980232239,-0.38281264901161194,9.648441314697266,0.0,0.0,0.0
3766424,-0.008605963550508022,-0.019470227882266045,0.9747321605682373,0.22235123813152313,-0.07812502980232239,-0.38281264901161194,9.648441314697266,0.0,0.0,0.0
3771980,-0.008605963550508022,-0.019470227882266045,0.9747321605682373,0.22235123813152313,-0.07812502980232239,-0.38281264901161194,9.648441314697266,0.0,0.0,0.0
3777240,-0.008605963550508022,-0.019470227882266045,0.9747321605682373,0.22235123813152313,-0.039062514901161194,-0.38281264901161194,9.609378814697266,0.0,0.0,0.0
3783068,-0.008605963550508022,-0.019470227882266045,0.9747321605682373,0.22235123813152313,-0.039062514901161194,-0.38281264901161194,9.609378814697266,0.0,0.0,0.0
3787948,-0.008605963550508022,-0.019470227882266045,0.9747321605682373,0.22235123813152313,-0.07812502980232239,-0.42187514901161194,9.613285064697266,0.0,0.0,0.0
3793420,-0.008605963550508022,-0.019470227882266045,0.9747321605682373,0.22235123813152313,-0.07812502980232239,-0.42187514901161194,9.613285064697266,0.0,0.0,0.0
3798672,-0.008605963550508022,-0.019470227882266045,0.9747321605682373,0.22235123813152313,-0.07812502980232239,-0.42187514901161194,9.652347564697266,0.0,0.0,0.0
3804076,-0.008605963550508022,-0.019470227882266045,0.9747321605682373,0.22235123813152313,-0.07812502980232239,-0.42187514901161194,9.652347564697266,0.0,0.0,0.0
3810144,-0.008605963550508022,-0.019470227882266045,0.9747321605682373,0.22235123813152313,-0.07812502980232239,-0.42187514901161194,9.613285064697266,0.0,0.0,0.0
3814888,-0.008605963550508022,-0.019470227882266045,0.9747321605682373,0.22235123813152313,-0.11328128725290298,-0.42187514901161194,9.613285064697266,0.0,0.0,0.0
3820016,-0.008605963550508022,-0.019470227882266045,0.9747321605682373,0.22235123813152313,-0.11328128725290298,-0.42187514901161194,9.613285064697266,0.0,0.0,0.0
3825408,-0.008605963550508022,-0.019470227882266045,0.9747321605682373,0.22235123813152313,-0.07812502980232239,-0.42187514901161194,9.652347564697266,0.0,0.0,0.0
3830448,-0.008605963550508022,-0.019470227882266045,0.9747321605682373,0.22235123813152313,-0.07812502980232239,-0.42187514901161194,9.652347564697266,0.0,0.0,0.0
3835700,-0.008605963550508022,-0.019470227882266045,0.9747321605682373,0.22235123813152313,-0.11328128725290298,-0.42187514901161194,9.652347564697266,0.0,0.0,0.0
3841292,-0.008605963550508022,-0.019470227882266045,0.9747321605682373,0.22235123813152313,-0.11328128725290298,-0.42187514901161194,9.652347564697266,0.0,0.0,0.0
3846028,-0.008605963550508022,-0.019470227882266045,0.9747321605682373,0.22235123813152313,-0.11328128725290298,-0.42187514901161194,9.652347564697266,0.0,0.0,0.0
3851596,-0.008605963550508022,-0.019470227882266045,0.9747321605682373,0.22235123813152313,-0.11328128725290298,-0.42187514901161194,9.652347564697266,0.0,0.0,0.0
3855972,-0.008605963550508022,-0.019470227882266045,0.9747321605682373,0.22235123813152313,-0.11328128725290298,-0.38281264901161194,9.582035064697266,0.0,0.0,0.0
3861024,-0.008605963550508022,-0.019470227882266045,0.9747321605682373,0.22235123813152313,-0.11328128725290298,-0.38281264901161194,9.582035064697266,0.0,0.0,0.0
3865700,-0.008605963550508022,-0.019470227882266045,0.9747321605682373,0.22235123813152313,-0.039062514901161194,-0.42187514901161194,9.652347564697266,0.0,0.0,0.0
3870740,-0.008605963550508022,-0.019470227882266045,0.9747321605682373,0.22235123813152313,-0.039062514901161194,-0.42187514901161194,9.652347564697266,0.0,0.0,0.0
3876000,-0.008605963550508022,-0.019470227882266045,0.9747321605682373,0.22235123813152313,-0.11328128725290298,-0.38281264901161194,9.609378814697266,0.0,0.0,0.0
3881748,-0.008605963550508022,-0.019470227882266045,0.9747321605682373,0.22235123813152313,-0.11328128725290298,-0.38281264901161194,9.609378814697266,0.0,0.0,0.0
3886724,-0.008605963550508022,-0.019470227882266045,0.9747321605682373,0.22235123813152313,-0.11328128725290298,-0.38281264901161194,9.609378814697266,0.0,0.0,0.0
3892132,-0.008605963550508022,-0.019470227882266045,0.9747321605682373,0.22235123813152313,-0.11328128725290298,-0.38281264901161194,9.609378814697266,0.0,0.0,0.0
3897440,-0.008605963550508022,-0.019470227882266045,0.9747321605682373,0.22235123813152313,-0.039062514901161194,-0.38281264901161194,9.609378814697266,0.0,0.0,0.0
3902820,-0.008605963550508022,-0.019409192726016045,0.9747321605682373,0.22235123813152313,-0.039062514901161194,-0.38281264901161194,9.609378814697266,0.0,0.0,0.0
3908252,-0.008605963550508022,-0.019409192726016045,0.9747321605682373,0.22235123813152313,-0.07812502980232239,-0.38281264901161194,9.609378814697266,0.0,0.0,0.0
3912928,-0.008605963550508022,-0.019409192726016045,0.9747321605682373,0.22235123813152313,-0.07812502980232239,-0.38281264901161194,9.648441314697266,0.0,0.0,0.0
3918528,-0.008605963550508022,-0.019409192726016045,0.9747321605682373,0.22235123813152313,-0.07812502980232239,-0.38281264901161194,9.648441314697266,0.0,0.0,0.0
3923768,-0.008605963550508022,-0.019409192726016045,0.9747321605682373,0.22235123813152313,-0.11328128725290298,-0.38281264901161194,9.648441314697266,0.0,0.0,0.0
3928824,-0.008605963550508022,-0.019409192726016045,0.9747321605682373,0.22235123813152313,-0.11328128725290298,-0.38281264901161194,9.648441314697266,0.0,0.0,0.0
3934068,-0.008605963550508022,-0.019409192726016045,0.9747321605682373,0.22235123813152313,-0.07812502980232239,-0.38281264901161194,9.648441314697266,0.0,0.0,0.0
3940828,-0.008605963550508022,-0.019409192726016045,0.9747321605682373,0.22235123813152313,-0.039062514901161194,-0.38281264901161194,9.648441314697266,0.0,0.0,0.0
3945512,-0.008605963550508022,-0.019409192726016045,0.9747321605682373,0.22235123813152313,-0.039062514901161194,-0.38281264901161194,9.648441314697266,0.0,0.0,0.0
3950644,-0.008605963550508022,-0.019409192726016045,0.9747321605682373,0.22235123813152313,-0.039062514901161194,-0.38281264901161194,9.648441314697266,0.0,0.0,0.0
3955324,-0.008605963550508022,-0.019409192726016045,0.9747321605682373,0.22235123813152313,-0.07812502980232239,-0.38281264901161194,9.648441314697266,0.0,0.0,0.0
3960824,-0.008605963550508022,-0.019409192726016045,0.9747321605682373,0.22235123813152313,-0.07812502980232239,-0.38281264901161194,9.648441314697266,0.0,0.0,0.0
3965160,-0.008605963550508022,-0.019409192726016045,0.9747321605682373,0.22235123813152313,-0.039062514901161194,-0.38281264901161194,9.648441314697266,0.0,0.0,0.0
3970552,-0.008605963550508022,-0.019409192726016045,0.9747321605682373,0.22235123813152313,-0.039062514901161194,-0.38281264901161194,9.648441314697266,0.0,0.0,0.0
3977044,-0.008605963550508022,-0.019409192726016045,0.9747321605682373,0.22235123813152313,-0.07812502980232239,-0.42187514901161194,9.613285064697266,0.0,0.0,0.0
3982424,-0.008605963550508022,-0.019409192726016045,0.9747321605682373,0.22235123813152313,-0.039062514901161194,-0.42187514901161194,9.687503814697266,0.0,0.0,0.0
3987816,-0.008605963550508022,-0.019409192726016045,0.9747321605682373,0.22235123813152313,-0.07812502980232239,-0.38281264901161194,9.691410064697266,0.0,0.0,0.0
3993108,-0.008605963550508022,-0.019409192726016045,0.9747321605682373,0.22235123813152313,-0.039062514901161194,-0.42187514901161194,9.613285064697266,0.0,0.0,0.0
3998148,-0.008605963550508022,-0.019409192726016045,0.9747321605682373,0.22235123813152313,-0.039062514901161194,-0.42187514901161194,9.613285064697266,0.0,0.0,0.0
4003444,-0.008605963550508022,-0.019409192726016045,0.9747321605682373,0.22235123813152313,-0.039062514901161194,-0.38281264901161194,9.609378814697266,0.0,0.0,0.0
4008488,-0.008605963550508022,-0.019409192726016045,0.9747321605682373,0.22235123813152313,-0.039062514901161194,-0.38281264901161194,9.609378814697266,0.0,0.0,0.0
4012820,-0.008605963550508022,-0.019409192726016045,0.9747321605682373,0.22235123813152313,-0.07812502980232239,-0.38281264901161194,9.648441314697266,0.0,0.0,0.0
4017888,-0.008605963550508022,-0.019409192726016045,0.9747321605682373,0.22235123813152313,-0.07812502980232239,-0.38281264901161194,9.648441314697266,0.0,0.0,0.0
4023152,-0.008605963550508022,-0.019409192726016045,0.9747321605682373,0.22235123813152313,-0.07812502980232239,-0.38281264901161194,9.648441314697266,0.0,0.0,0.0
4028624,-0.008605963550508022,-0.019409192726016045,0.9747321605682373,0.22235123813152313,-0.07812502980232239,-0.38281264901161194,9.648441314697266,0.0,0.0,0.0
4034232,-0.008605963550508022,-0.019409192726016045,0.9747321605682373,0.22235123813152313,-0.11328128725290298,-0.38281264901161194,9.609378814697266,0.0,0.0,0.0
4040028,-0.008605963550508022,-0.019409192726016045,0.9747321605682373,0.22235123813152313,-0.11328128725290298,-0.38281264901161194,9.609378814697266,0.0,0.0,0.0
4044360,-0.008605963550508022,-0.019409192726016045,0.9747321605682373,0.22235123813152313,-0.07812502980232239,-0.38281264901161194,9.609378814697266,0.0,0.0,0.0
4049800,-0.008605963550508022,-0.019409192726016045,0.9747321605682373,0.22235123813152313,-0.07812502980232239,-0.38281264901161194,9.609378814697266,0.0,0.0,0.0
4054556,-0.008605963550508022,-0.019409192726016045,0.9747321605682373,0.22235123813152313,-0.039062514901161194,-0.42187514901161194,9.687503814697266,0.0,0.0,0.0
4059952,-0.008605963550508022,-0.019409192726016045,0.9747321605682373,0.22235123813152313,-0.039062514901161194,-0.42187514901161194,9.687503814697266,0.0,0.0,0.0
4064996,-0.008605963550508022,-0.019409192726016045,0.9747321605682373,0.22235123813152313,-0.07812502980232239,-0.38281264901161194,9.609378814697266,0.0,0.0,0.0
4070516,-0.008605963550508022,-0.019409192726016045,0.9747321605682373,0.22235123813152313,-0.07812502980232239,-0.38281264901161194,9.609378814697266,0.0,0.0,0.0
4076320,-0.008605963550508022,-0.019409192726016045,0.9747321605682373,0.22235123813152313,-0.07812502980232239,-0.42187514901161194,9.652347564697266,0.0,0.0,0.0
4081924,-0.008605963550508022,-0.019409192726016045,0.9747321605682373,0.22235123813152313,-0.15234380960464478,-0.38281264901161194,9.648441314697266,0.0,0.0,0.0
4087052,-0.008605963550508022,-0.019409192726016045,0.9747321605682373,0.22235123813152313,-0.15234380960464478,-0.38281264901161194,9.648441314697266,0.0,0.0,0.0
4092320,-0.008605963550508022,-0.019409192726016045,0.9747321605682373,0.22235123813152313,-0.11328128725290298,-0.42187514901161194,9.613285064697266,0.0,0.0,0.0
4097420,-0.008605963550508022,-0.019409192726016045,0.9747321605682373,0.22235123813152313,-0.11328128725290298,-0.42187514901161194,9.613285064697266,0.0,0.0,0.0
4102096,-0.008605963550508022,-0.019409192726016045,0.9747321605682373,0.22235123813152313,-0.11328128725290298,-0.42187514901161194,9.613285064697266,0.0,0.0,0.0
4107140,-0.008605963550508022,-0.019409192726016045,0.9747321605682373,0.22235123813152313,-0.11328128725290298,-0.42187514901161194,9.613285064697266,0.0,0.0,0.0
4111804,-0.008605963550508022,-0.019409192726016045,0.9747321605682373,0.22235123813152313,-0.07812502980232239,-0.38281264901161194,9.648441314697266,0.0,0.0,0.0
4117208,-0.008605963550508022,-0.019409192726016045,0.9747321605682373,0.22235123813152313,-0.07812502980232239,-0.38281264901161194,9.648441314697266,0.0,0.0,0.0
4121900,-0.008605963550508022,-0.019409192726016045,0.9747321605682373,0.22235123813152313,-0.07812502980232239,-0.42187514901161194,9.652347564697266,0.0,0.0,0.0
4126932,-0.008605963550508022,-0.019409192726016045,0.9747321605682373,0.22235123813152313,-0.07812502980232239,-0.42187514901161194,9.652347564697266,0.0,0.0,0.0
4132544,-0.008605963550508022,-0.019409192726016045,0.9747321605682373,0.22235123813152313,-0.07812502980232239,-0.38281264901161194,9.648441314697266,0.0,0.0,0.0
4138200,-0.008605963550508022,-0.019409192726016045,0.9747321605682373,0.22235123813152313,-0.07812502980232239,-0.38281264901161194,9.648441314697266,0.0,0.0,0.0
4142924,-0.008605963550508022,-0.019409192726016045,0.9747321605682373,0.22235123813152313,-0.07812502980232239,-0.38281264901161194,9.648441314697266,0.0,0.0,0.0
4148024,-0.008605963550508022,-0.019409192726016045,0.9747321605682373,0.22235123813152313,-0.07812502980232239,-0.38281264901161194,9.648441314697266,0.0,0.0,0.0
4153872,-0.008605963550508022,-0.019409192726016045,0.9747321605682373,0.22235123813152313,-0.07812502980232239,-0.38281264901161194,9.691410064697266,0.0,0.0,0.0
4158568,-0.008605963550508022,-0.019409192726016045,0.9747321605682373,0.22235123813152313,-0.07812502980232239,-0.38281264901161194,9.648441314697266,0.0,0.0,0.0
4162888,-0.008605963550508022,-0.019409192726016045,0.9747321605682373,0.22235123813152313,-0.039062514901161194,-0.38281264901161194,9.648441314697266,0.0,0.0,0.0
4168856,-0.008605963550508022,-0.019409192726016045,0.9747321605682373,0.22235123813152313,-0.039062514901161194,-0.38281264901161194,9.648441314697266,0.0,0.0,0.0
4174876,-0.008605963550508022,-0.019409192726016045,0.9747321605682373,0.22235123813152313,-0.039062514901161194,-0.38281264901161194,9.730472564697266,0.0,0.0,0.0
4180136,-0.008605963550508022,-0.019409192726016045,0.9747321605682373,0.22235123813152313,-0.039062514901161194,-0.38281264901161194,9.691410064697266,0.0,0.0,0.0
4186232,-0.008605963550508022,-0.019409192726016045,0.9747321605682373,0.22235123813152313,-0.07812502980232239,-0.38281264901161194,9.582035064697266,0.0,0.0,0.0
4191464,-0.008605963550508022,-0.019409192726016045,0.9747321605682373,0.22235123813152313,-0.07812502980232239,-0.42187514901161194,9.687503814697266,0.0,0.0,0.0
4196892,-0.008605963550508022,-0.019409192726016045,0.9747321605682373,0.22235123813152313,-0.07812502980232239,-0.42187514901161194,9.687503814697266,0.0,0.0,0.0
4201584,-0.008605963550508022,-0.019409192726016045,0.9747321605682373,0.22235123813152313,-0.07812502980232239,-0.42187514901161194,9.687503814697266,0.0,0.0,0.0
4206972,-0.008605963550508022,-0.019409192726016045,0.9747321605682373,0.22235123813152313,-0.07812502980232239,-0.42187514901161194,9.687503814697266,0.0,0.0,0.0
4211656,-0.008605963550508022,-0.019409192726016045,0.9747321605682373,0.22235123813152313,-0.039062514901161194,-0.42187514901161194,9.652347564697266,0.0,0.0,0.0
4217060,-0.008605963550508022,-0.019409192726016045,0.9747321605682373,0.22235123813152313,-0.039062514901161194,-0.42187514901161194,9.652347564697266,0.0,0.0,0.0
4222020,-0.008605963550508022,-0.019409192726016045,0.9747321605682373,0.22235123813152313,-0.07812502980232239,-0.42187514901161194,9.613285064697266,0.0,0.0,0.0
4227456,-0.008605963550508022,-0.019409192726016045,0.9747321605682373,0.22235123813152313,-0.07812502980232239,-0.42187514901161194,9.613285064697266,0.0,0.0,0.0
4233784,-0.008605963550508022,-0.019409192726016045,0.9747321605682373,0.22235123813152313,-0.07812502980232239,-0.38281264901161194,9.609378814697266,0.0,0.0,0.0
4239084,-0.008605963550508022,-0.019409192726016045,0.9747321605682373,0.22235123813152313,-0.07812502980232239,-0.38281264901161194,9.648441314697266,0.0,0.0,0.0
4244116,-0.008605963550508022,-0.019409192726016045,0.9747321605682373,0.22235123813152313,-0.07812502980232239,-0.38281264901161194,9.648441314697266,0.0,0.0,0.0
4248836,-0.008605963550508022,-0.019409192726016045,0.9747321605682373,0.22235123813152313,-0.039062514901161194,-0.42187514901161194,9.613285064697266,0.0,0.0,0.0
4253240,-0.008605963550508022,-0.019409192726016045,0.9747321605682373,0.22235123813152313,-0.07812502980232239,-0.38281264901161194,9.648441314697266,0.0,0.0,0.0
4258660,-0.008605963550508022,-0.019409192726016045,0.9747321605682373,0.22235123813152313,-0.07812502980232239,-0.38281264901161194,9.648441314697266,0.0,0.0,0.0
4263776,-0.008605963550508022,-0.019409192726016045,0.9747321605682373,0.22235123813152313,-0.07812502980232239,-0.38281264901161194,9.648441314697266,0.0,0.0,0.0
4269108,-0.008605963550508022,-0.019409192726016045,0.9747321605682373,0.22235123813152313,-0.07812502980232239,-0.38281264901161194,9.609378814697266,0.0,0.0,0.0
4274884,-0.008605963550508022,-0.019409192726016045,0.9747321605682373,0.22235123813152313,-0.07812502980232239,-0.38281264901161194,9.648441314697266,0.0,0.0,0.0
4280144,-0.008605963550508022,-0.019409192726016045,0.9747321605682373,0.22235123813152313,-0.11328128725290298,-0.38281264901161194,9.648441314697266,0.0,0.0,0.0
4285176,-0.008605963550508022,-0.019409192726016045,0.9747321605682373,0.22235123813152313,-0.11328128725290298,-0.38281264901161194,9.648441314697266,0.0,0.0,0.0
4289860,-0.008605963550508022,-0.019409192726016045,0.9747321605682373,0.22235123813152313,-0.11328128725290298,-0.38281264901161194,9.648441314697266,0.0,0.0,0.0
4294924,-0.008605963550508022,-0.019409192726016045,0.9747321605682373,0.22235123813152313,-0.11328128725290298,-0.38281264901161194,9.648441314697266,0.0,0.0,0.0
4300176,-0.008605963550508022,-0.019409192726016045,0.9747321605682373,0.22235123813152313,-0.07812502980232239,-0.38281264901161194,9.648441314697266,0.0,0.0,0.0
4305636,-0.008605963550508022,-0.019409192726016045,0.9747321605682373,0.22235123813152313,-0.07812502980232239,-0.38281264901161194,9.648441314697266,0.0,0.0,0.0
4310316,-0.008605963550508022,-0.019409192726016045,0.9747321605682373,0.22235123813152313,-0.039062514901161194,-0.38281264901161194,9.648441314697266,0.0,0.0,0.0
4315732,-0.008605963550508022,-0.019409192726016045,0.9747321605682373,0.22235123813152313,-0.039062514901161194,-0.38281264901161194,9.648441314697266,0.0,0.0,0.0
4320424,-0.008605963550508022,-0.019409192726016045,0.9747321605682373,0.22235123813152313,-0.07812502980232239,-0.38281264901161194,9.648441314697266,0.0,0.0,0.0
4325448,-0.008605963550508022,-0.019409192726016045,0.9747321605682373,0.22235123813152313,-0.07812502980232239,-0.38281264901161194,9.648441314697266,0.0,0.0,0.0
4330688,-0.008605963550508022,-0.019409192726016045,0.9747321605682373,0.22235123813152313,-0.07812502980232239,-0.38281264901161194,9.609378814697266,0.0,0.0,0.0
4336504,-0.008605963550508022,-0.019409192726016045,0.9747321605682373,0.22235123813152313,-0.07812502980232239,-0.38281264901161194,9.609378814697266,0.0,0.0,0.0
4340844,-0.008605963550508022,-0.019409192726016045,0.9747321605682373,0.22235123813152313,-0.07812502980232239,-0.38281264901161194,9.609378814697266,0.0,0.0,0.0
4346316,-0.008605963550508022,-0.019409192726016045,0.9747321605682373,0.22235123813152313,-0.07812502980232239,-0.38281264901161194,9.609378814697266,0.0,0.0,0.0
4351004,-0.008605963550508022,-0.019409192726016045,0.9747321605682373,0.22235123813152313,-0.07812502980232239,-0.4609376788139343,9.609378814697266,0.0,0.0,0.0
4356392,-0.008605963550508022,-0.019409192726016045,0.9747321605682373,0.22235123813152313,-0.07812502980232239,-0.4609376788139343,9.609378814697266,0.0,0.0,0.0
4360764,-0.008605963550508022,-0.019409192726016045,0.9747321605682373,0.22235123813152313,-0.11328128725290298,-0.38281264901161194,9.648441314697266,0.0,0.0,0.0
4366512,-0.008605963550508022,-0.019409192726016045,0.9747321605682373,0.22235123813152313,-0.11328128725290298,-0.38281264901161194,9.648441314697266,0.0,0.0,0.0
4372500,-0.008605963550508022,-0.019409192726016045,0.9747321605682373,0.22235123813152313,-0.07812502980232239,-0.38281264901161194,9.648441314697266,0.0,0.0,0.0
4377176,-0.008605963550508022,-0.019409192726016045,0.9747321605682373,0.22235123813152313,-0.07812502980232239,-0.38281264901161194,9.648441314697266,0.0,0.0,0.0
4383292,-0.008605963550508022,-0.019409192726016045,0.9747321605682373,0.22235123813152313,-0.11328128725290298,-0.42187514901161194,9.613285064697266,0.0,0.0,0.0
4388604,-0.008605963550508022,-0.019409192726016045,0.9747321605682373,0.22235123813152313,-0.07812502980232239,-0.42187514901161194,9.613285064697266,0.0,0.0,0.0
4393692,-0.008605963550508022,-0.019409192726016045,0.9747321605682373,0.22235123813152313,-0.07812502980232239,-0.42187514901161194,9.613285064697266,0.0,0.0,0.0
4398948,-0.008605963550508022,-0.019409192726016045,0.9747321605682373,0.22235123813152313,-0.11328128725290298,-0.38281264901161194,9.609378814697266,0.0,0.0,0.0
4404412,-0.008605963550508022,-0.019409192726016045,0.9747321605682373,0.22235123813152313,-0.11328128725290298,-0.38281264901161194,9.609378814697266,0.0,0.0,0.0
4409084,-0.008605963550508022,-0.019409192726016045,0.9747321605682373,0.22235123813152313,-0.039062514901161194,-0.38281264901161194,9.691410064697266,0.0,0.0,0.0
4414600,-0.008605963550508022,-0.019409192726016045,0.9747321605682373,0.22235123813152313,-0.039062514901161194,-0.38281264901161194,9.691410064697266,0.0,0.0,0.0
4419272,-0.008605963550508022,-0.019409192726016045,0.9747321605682373,0.22235123813152313,-0.039062514901161194,-0.42187514901161194,9.652347564697266,0.0,0.0,0.0
4424676,-0.008605963550508022,-0.019409192726016045,0.9747321605682373,0.22235123813152313,-0.039062514901161194,-0.42187514901161194,9.652347564697266,0.0,0.0,0.0
4429352,-0.008605963550508022,-0.019409192726016045,0.9747321605682373,0.22235123813152313,-0.07812502980232239,-0.38281264901161194,9.648441314697266,0.0,0.0,0.0
4434788,-0.008605963550508022,-0.019409192726016045,0.9747321605682373,0.22235123813152313,-0.07812502980232239,-0.38281264901161194,9.648441314697266,0.0,0.0,0.0
4439108,-0.008605963550508022,-0.019409192726016045,0.9747321605682373,0.22235123813152313,-0.039062514901161194,-0.42187514901161194,9.613285064697266,0.0,0.0,0.0
4444520,-0.008605963550508022,-0.019409192726016045,0.9747321605682373,0.22235123813152313,-0.039062514901161194,-0.42187514901161194,9.613285064697266,0.0,0.0,0.0
4449260,-0.008605963550508022,-0.019409192726016045,0.9747321605682373,0.22235123813152313,-0.07812502980232239,-0.38281264901161194,9.582035064697266,0.0,0.0,0.0
4454692,-0.008605963550508022,-0.019409192726016045,0.9747321605682373,0.22235123813152313,-0.07812502980232239,-0.38281264901161194,9.582035064697266,0.0,0.0,0.0
4459028,-0.008605963550508022,-0.019409192726016045,0.9747321605682373,0.22235123813152313,-0.11328128725290298,-0.42187514901161194,9.652347564697266,0.0,0.0,0.0
4464788,-0.008605963550508022,-0.019409192726016045,0.9747321605682373,0.22235123813152313,-0.11328128725290298,-0.42187514901161194,9.652347564697266,0.0,0.0,0.0
4471196,-0.008605963550508022,-0.019409192726016045,0.9747321605682373,0.22235123813152313,-0.07812502980232239,-0.38281264901161194,9.609378814697266,0.0,0.0,0.0
4476544,-0.008605963550508022,-0.019409192726016045,0.9747321605682373,0.22235123813152313,-0.11328128725290298,-0.42187514901161194,9.687503814697266,0.0,0.0,0.0
4482128,-0.008605963550508022,-0.019409192726016045,0.9747321605682373,0.22235123813152313,-0.11328128725290298,-0.42187514901161194,9.652347564697266,0.0,0.0,0.0
4487412,-0.008605963550508022,-0.019409192726016045,0.9747321605682373,0.22235123813152313,-0.07812502980232239,-0.38281264901161194,9.648441314697266,0.0,0.0,0.0
4492464,-0.008605963550508022,-0.019409192726016045,0.9747321605682373,0.22235123813152313,-0.07812502980232239,-0.38281264901161194,9.648441314697266,0.0,0.0,0.0
4497728,-0.008605963550508022,-0.019409192726016045,0.9747321605682373,0.22235123813152313,-0.039062514901161194,-0.42187514901161194,9.652347564697266,0.0,0.0,0.0
4502092,-0.008605963550508022,-0.019409192726016045,0.9747321605682373,0.22235123813152313,-0.039062514901161194,-0.42187514901161194,9.652347564697266,0.0,0.0,0.0
4507128,-0.008605963550508022,-0.019287122413516045,0.9747321605682373,0.22235123813152313,-0.039062514901161194,-0.42187514901161194,9.652347564697266,0.0,0.0,0.0
4512528,-0.008605963550508022,-0.019287122413516045,0.9747321605682373,0.22235123813152313,-0.039062514901161194,-0.42187514901161194,9.652347564697266,0.0,0.0,0.0
4517848,-0.008605963550508022,-0.019287122413516045,0.9747321605682373,0.22235123813152313,-0.07812502980232239,-0.38281264901161194,9.691410064697266,0.0,0.0,0.0
4522864,-0.008605963550508022,-0.019287122413516045,0.9747321605682373,0.22235123813152313,-0.07812502980232239,-0.38281264901161194,9.691410064697266,0.0,0.0,0.0
4528112,-0.008605963550508022,-0.019287122413516045,0.9747321605682373,0.22235123813152313,-0.039062514901161194,-0.38281264901161194,9.648441314697266,0.0,0.0,0.0
4533520,-0.008605963550508022,-0.019287122413516045,0.9747321605682373,0.22235123813152313,-0.039062514901161194,-0.38281264901161194,9.648441314697266,0.0,0.0,0.0
4537844,-0.008605963550508022,-0.019287122413516045,0.9747321605682373,0.22235123813152313,-0.07812502980232239,-0.38281264901161194,9.648441314697266,0.0,0.0,0.0
4542900,-0.008605963550508022,-0.019287122413516045,0.9747321605682373,0.22235123813152313,-0.07812502980232239,-0.38281264901161194,9.648441314697266,0.0,0.0,0.0
4548160,-0.008605963550508022,-0.019287122413516045,0.9747321605682373,0.22235123813152313,-0.11328128725290298,-0.38281264901161194,9.648441314697266,0.0,0.0,0.0
4553588,-0.008605963550508022,-0.019287122413516045,0.9747321605682373,0.22235123813152313,-0.11328128725290298,-0.38281264901161194,9.648441314697266,0.0,0.0,0.0
4557912,-0.008605963550508022,-0.019287122413516045,0.9747321605682373,0.22235123813152313,-0.07812502980232239,-0.38281264901161194,9.582035064697266,0.0,0.0,0.0
4563688,-0.008605963550508022,-0.019287122413516045,0.9747321605682373,0.22235123813152313,-0.07812502980232239,-0.38281264901161194,9.582035064697266,0.0,0.0,0.0
4570004,-0.008605963550508022,-0.019287122413516045,0.9747321605682373,0.22235123813152313,-0.039062514901161194,-0.38281264901161194,9.648441314697266,0.0,0.0,0.0
4575348,-0.008605963550508022,-0.019287122413516045,0.9747321605682373,0.22235123813152313,-0.15234380960464478,-0.38281264901161194,9.648441314697266,0.0,0.0,0.0
4580960,-0.008605963550508022,-0.019287122413516045,0.9747321605682373,0.22235123813152313,-0.07812502980232239,-0.38281264901161194,9.691410064697266,0.0,0.0,0.0
4585680,-0.008605963550508022,-0.019287122413516045,0.9747321605682373,0.22235123813152313,-0.07812502980232239,-0.38281264901161194,9.648441314697266,0.0,0.0,0.0
4590760,-0.008605963550508022,-0.019287122413516045,0.9747321605682373,0.22235123813152313,-0.07812502980232239,-0.38281264901161194,9.648441314697266,0.0,0.0,0.0
4596164,-0.008605963550508022,-0.019287122413516045,0.9747321605682373,0.22235123813152313,-0.07812502980232239,-0.38281264901161194,9.648441314697266,0.0,0.0,0.0
4601960,-0.008605963550508022,-0.019287122413516045,0.9747321605682373,0.22235123813152313,-0.07812502980232239,-0.38281264901161194,9.648441314697266,0.0,0.0,0.0
4606640,-0.008605963550508022,-0.019287122413516045,0.9747321605682373,0.22235123813152313,-0.07812502980232239,-0.42187514901161194,9.652347564697266,0.0,0.0,0.0
4612980,-0.008605963550508022,-0.019287122413516045,0.9747321605682373,0.22235123813152313,-0.07812502980232239,-0.42187514901161194,9.652347564697266,0.0,0.0,0.0
4617648,-0.008605963550508022,-0.019287122413516045,0.9747321605682373,0.22235123813152313,-0.11328128725290298,-0.38281264901161194,9.648441314697266,0.0,0.0,0.0
4622696,-0.008605963550508022,-0.019287122413516045,0.9747321605682373,0.22235123813152313,-0.11328128725290298,-0.38281264901161194,9.648441314697266,0.0,0.0,0.0
4627952,-0.008605963550508022,-0.019287122413516045,0.9747321605682373,0.22235123813152313,-0.11328128725290298,-0.42187514901161194,9.652347564697266,0.0,0.0,0.0
4633356,-0.008605963550508022,-0.019287122413516045,0.9747321605682373,0.22235123813152313,-0.11328128725290298,-0.42187514901161194,9.652347564697266,0.0,0.0,0.0
4637688,-0.008605963550508022,-0.019287122413516045,0.9747321605682373,0.22235123813152313,-0.039062514901161194,-0.42187514901161194,9.652347564697266,0.0,0.0,0.0
4642744,-0.008605963550508022,-0.019287122413516045,0.9747321605682373,0.22235123813152313,-0.039062514901161194,-0.42187514901161194,9.652347564697266,0.0,0.0,0.0
4649120,-0.008605963550508022,-0.019287122413516045,0.9747321605682373,0.22235123813152313,-0.11328128725290298,-0.38281264901161194,9.648441314697266,0.0,0.0,0.0
4654584,-0.008605963550508022,-0.019287122413516045,0.9747321605682373,0.22235123813152313,-0.07812502980232239,-0.42187514901161194,9.687503814697266,0.0,0.0,0.0
4659640,-0.008605963550508022,-0.019287122413516045,0.9747321605682373,0.22235123813152313,-0.07812502980232239,-0.42187514901161194,9.687503814697266,0.0,0.0,0.0
4665276,-0.008605963550508022,-0.019287122413516045,0.9747321605682373,0.22235123813152313,-0.07812502980232239,-0.38281264901161194,9.582035064697266,0.0,0.0,0.0
4671196,-0.008605963550508022,-0.019287122413516045,0.9747321605682373,0.22235123813152313,-0.07812502980232239,-0.38281264901161194,9.582035064697266,0.0,0.0,0.0
4675520,-0.008605963550508022,-0.019287122413516045,0.9747321605682373,0.22235123813152313,-0.07812502980232239,-0.38281264901161194,9.648441314697266,0.0,0.0,0.0
4680588,-0.008605963550508022,-0.019287122413516045,0.9747321605682373,0.22235123813152313,-0.07812502980232239,-0.38281264901161194,9.648441314697266,0.0,0.0,0.0
4685292,-0.008605963550508022,-0.019287122413516045,0.9747321605682373,0.22235123813152313,-0.07812502980232239,-0.42187514901161194,9.652347564697266,0.0,0.0,0.0
4690340,-0.008605963550508022,-0.019287122413516045,0.9747321605682373,0.22235123813152313,-0.07812502980232239,-0.42187514901161194,9.652347564697266,0.0,0.0,0.0
4695596,-0.008605963550508022,-0.019287122413516045,0.9747321605682373,0.22235123813152313,-0.15234380960464478,-0.42187514901161194,9.652347564697266,0.0,0.0,0.0
4700920,-0.008605963550508022,-0.019287122413516045,0.9747321605682373,0.22235123813152313,-0.15234380960464478,-0.42187514901161194,9.652347564697266,0.0,0.0,0.0
4705600,-0.008605963550508022,-0.019287122413516045,0.9747321605682373,0.22235123813152313,-0.07812502980232239,-0.38281264901161194,9.648441314697266,0.0,0.0,0.0
4711004,-0.008605963550508022,-0.019287122413516045,0.9747321605682373,0.22235123813152313,-0.07812502980232239,-0.38281264901161194,9.648441314697266,0.0,0.0,0.0
4715688,-0.008605963550508022,-0.019287122413516045,0.9747321605682373,0.22235123813152313,-0.11328128725290298,-0.42187514901161194,9.578128814697266,0.0,0.0,0.0
4721588,-0.008605963550508022,-0.019287122413516045,0.9747321605682373,0.22235123813152313,-0.11328128725290298,-0.42187514901161194,9.578128814697266,0.0,0.0,0.0
4725924,-0.008605963550508022,-0.019287122413516045,0.9747321605682373,0.22235123813152313,-0.07812502980232239,-0.38281264901161194,9.609378814697266,0.0,0.0,0.0
4731668,-0.008605963550508022,-0.019287122413516045,0.9747321605682373,0.22235123813152313,-0.07812502980232239,-0.38281264901161194,9.609378814697266,0.0,0.0,0.0
4736008,-0.008605963550508022,-0.019287122413516045,0.9747321605682373,0.22235123813152313,-0.15234380960464478,-0.38281264901161194,9.609378814697266,0.0,0.0,0.0
4741664,-0.008605963550508022,-0.019287122413516045,0.9747321605682373,0.22235123813152313,-0.15234380960464478,-0.38281264901161194,9.609378814697266,0.0,0.0,0.0
4746348,-0.008605963550508022,-0.019287122413516045,0.9747321605682373,0.22235123813152313,-0.07812502980232239,-0.38281264901161194,9.691410064697266,0.0,0.0,0.0
4751384,-0.008605963550508022,-0.019287122413516045,0.9747321605682373,0.22235123813152313,-0.07812502980232239,-0.38281264901161194,9.691410064697266,0.0,0.0,0.0
4757176,-0.008605963550508022,-0.019287122413516045,0.9747321605682373,0.22235123813152313,-0.039062514901161194,-0.38281264901161194,9.648441314697266,0.0,0.0,0.0
4762432,-0.008605963550508022,-0.019287122413516045,0.9747321605682373,0.22235123813152313,-0.07812502980232239,-0.42187514901161194,9.687503814697266,0.0,0.0,0.0
4767860,-0.008605963550508022,-0.019287122413516045,0.9747321605682373,0.22235123813152313,-0.039062514901161194,-0.38281264901161194,9.609378814697266,0.0,0.0,0.0
4772536,-0.008605963550508022,-0.019287122413516045,0.9747321605682373,0.22235123813152313,-0.07812502980232239,-0.38281264901161194,9.648441314697266,0.0,0.0,0.0
4778144,-0.008605963550508022,-0.019287122413516045,0.9747321605682373,0.22235123813152313,-0.07812502980232239,-0.38281264901161194,9.648441314697266,0.0,0.0,0.0
4783404,-0.008605963550508022,-0.019287122413516045,0.9747321605682373,0.22235123813152313,-0.07812502980232239,-0.38281264901161194,9.648441314697266,0.0,0.0,0.0
4788488,-0.008605963550508022,-0.019287122413516045,0.9747321605682373,0.22235123813152313,-0.07812502980232239,-0.38281264901161194,9.648441314697266,0.0,0.0,0.0
4793804,-0.008605963550508022,-0.019287122413516045,0.9747321605682373,0.22235123813152313,-0.07812502980232239,-0.38281264901161194,9.691410064697266,0.0,0.0,0.0
4799544,-0.008605963550508022,-0.019287122413516045,0.9747321605682373,0.22235123813152313,-0.07812502980232239,-0.38281264901161194,9.691410064697266,0.0,0.0,0.0
4804224,-0.008605963550508022,-0.019287122413516045,0.9747321605682373,0.22235123813152313,0.0,-0.42187514901161194,9.613285064697266,0.0,0.0,0.0
4810856,-0.008605963550508022,-0.019287122413516045,0.9747321605682373,0.22235123813152313,0.0,-0.42187514901161194,9.613285064697266,0.0,0.0,0.0
4815532,-0.008605963550508022,-0.019287122413516045,0.9747321605682373,0.22235123813152313,-0.07812502980232239,-0.38281264901161194,9.582035064697266,0.0,0.0,0.0
4820960,-0.008605963550508022,-0.019287122413516045,0.9747321605682373,0.22235123813152313,-0.07812502980232239,-0.38281264901161194,9.582035064697266,0.0,0.0,0.0
4826288,-0.008605963550508022,-0.019287122413516045,0.9747321605682373,0.22235123813152313,-0.07812502980232239,-0.42187514901161194,9.613285064697266,0.0,0.0,0.0
4831740,-0.008605963550508022,-0.019287122413516045,0.9747321605682373,0.22235123813152313,-0.07812502980232239,-0.42187514901161194,9.613285064697266,0.0,0.0,0.0
4837180,-0.008605963550508022,-0.019287122413516045,0.9747321605682373,0.22235123813152313,-0.039062514901161194,-0.42187514901161194,9.652347564697266,0.0,0.0,0.0
4841868,-0.008605963550508022,-0.019287122413516045,0.9747321605682373,0.22235123813152313,-0.07812502980232239,-0.42187514901161194,9.652347564697266,0.0,0.0,0.0
4847296,-0.008605963550508022,-0.019287122413516045,0.9747321605682373,0.22235123813152313,-0.07812502980232239,-0.38281264901161194,9.648441314697266,0.0,0.0,0.0
4852548,-0.008605963550508022,-0.019287122413516045,0.9747321605682373,0.22235123813152313,-0.07812502980232239,-0.42187514901161194,9.652347564697266,0.0,0.0,0.0
4858248,-0.008605963550508022,-0.019287122413516045,0.9747321605682373,0.22235123813152313,-0.07812502980232239,-0.42187514901161194,9.652347564697266,0.0,0.0,0.0
4863908,-0.008605963550508022,-0.019287122413516045,0.9747321605682373,0.22235123813152313,-0.07812502980232239,-0.42187514901161194,9.613285064697266,0.0,0.0,0.0
4869320,-0.008605963550508022,-0.019287122413516045,0.9747321605682373,0.22235123813152313,-0.07812502980232239,-0.42187514901161194,9.613285064697266,0.0,0.0,0.0
4874012,-0.008605963550508022,-0.019287122413516045,0.9747321605682373,0.22235123813152313,-0.039062514901161194,-0.38281264901161194,9.609378814697266,0.0,0.0,0.0
4879412,-0.008605963550508022,-0.019287122413516045,0.9747321605682373,0.22235123813152313,-0.039062514901161194,-0.38281264901161194,9.609378814697266,0.0,0.0,0.0
4884084,-0.008605963550508022,-0.019287122413516045,0.9747321605682373,0.22235123813152313,-0.07812502980232239,-0.38281264901161194,9.609378814697266,0.0,0.0,0.0
4889576,-0.008605963550508022,-0.019287122413516045,0.9747321605682373,0.22235123813152313,-0.07812502980232239,-0.38281264901161194,9.609378814697266,0.0,0.0,0.0
4895328,-0.008605963550508022,-0.019287122413516045,0.9747321605682373,0.22235123813152313,-0.11328128725290298,-0.42187514901161194,9.613285064697266,0.0,0.0,0.0
4899640,-0.008605963550508022,-0.019287122413516045,0.9747321605682373,0.22235123813152313,-0.07812502980232239,-0.38281264901161194,9.582035064697266,0.0,0.0,0.0
4905440,-0.008605963550508022,-0.019287122413516045,0.9747321605682373,0.22235123813152313,-0.07812502980232239,-0.42187514901161194,9.613285064697266,0.0,0.0,0.0
4910136,-0.008605963550508022,-0.019287122413516045,0.9747321605682373,0.22235123813152313,-0.07812502980232239,-0.38281264901161194,9.582035064697266,0.0,0.0,0.0
4915536,-0.008605963550508022,-0.019287122413516045,0.9747321605682373,0.22235123813152313,-0.07812502980232239,-0.38281264901161194,9.609378814697266,0.0,0.0,0.0
4920812,-0.008605963550508022,-0.019287122413516045,0.9747321605682373,0.22235123813152313,-0.07812502980232239,-0.42187514901161194,9.578128814697266,0.0,0.0,0.0
4926528,-0.008605963550508022,-0.019287122413516045,0.9747321605682373,0.22235123813152313,-0.11328128725290298,-0.38281264901161194,9.582035064697266,0.0,0.0,0.0
4930848,-0.008605963550508022,-0.019287122413516045,0.9747321605682373,0.22235123813152313,-0.07812502980232239,-0.38281264901161194,9.609378814697266,0.0,0.0,0.0
4935924,-0.008605963550508022,-0.019287122413516045,0.9747321605682373,0.22235123813152313,-0.07812502980232239,-0.38281264901161194,9.609378814697266,0.0,0.0,0.0
4940612,-0.008605963550508022,-0.019287122413516045,0.9747321605682373,0.22235123813152313,-0.07812502980232239,-0.38281264901161194,9.609378814697266,0.0,0.0,0.0
4946144,-0.008605963550508022,-0.019287122413516045,0.9747321605682373,0.22235123813152313,-0.07812502980232239,-0.42187514901161194,9.613285064697266,0.0,0.0,0.0
4951400,-0.008605963550508022,-0.019287122413516045,0.9747321605682373,0.22235123813152313,-0.07812502980232239,-0.42187514901161194,9.652347564697266,0.0,0.0,0.0
4956892,-0.008605963550508022,-0.019287122413516045,0.9747321605682373,0.22235123813152313,-0.07812502980232239,-0.42187514901161194,9.652347564697266,0.0,0.0,0.0
4962148,-0.008605963550508022,-0.019287122413516045,0.9747321605682373,0.22235123813152313,-0.07812502980232239,-0.38281264901161194,9.582035064697266,0.0,0.0,0.0
4967232,-0.008605963550508022,-0.019287122413516045,0.9747321605682373,0.22235123813152313,-0.07812502980232239,-0.38281264901161194,9.582035064697266,0.0,0.0,0.0
4972520,-0.008605963550508022,-0.019287122413516045,0.9747321605682373,0.22235123813152313,-0.07812502980232239,-0.38281264901161194,9.609378814697266,0.0,0.0,0.0
4977748,-0.008605963550508022,-0.019287122413516045,0.9747321605682373,0.22235123813152313,-0.07812502980232239,-0.38281264901161194,9.609378814697266,0.0,0.0,0.0
4982436,-0.008605963550508022,-0.019287122413516045,0.9747321605682373,0.22235123813152313,-0.07812502980232239,-0.42187514901161194,9.652347564697266,0.0,0.0,0.0
4987472,-0.008605963550508022,-0.019287122413516045,0.9747321605682373,0.22235123813152313,-0.07812502980232239,-0.42187514901161194,9.652347564697266,0.0,0.0,0.0
4992168,-0.008605963550508022,-0.019287122413516045,0.9747321605682373,0.22235123813152313,-0.039062514901161194,-0.38281264901161194,9.582035064697266,0.0,0.0,0.0
4997240,-0.008605963550508022,-0.019287122413516045,0.9747321605682373,0.22235123813152313,-0.039062514901161194,-0.38281264901161194,9.582035064697266,0.0,0.0,0.0
5001564,-0.008605963550508022,-0.019287122413516045,0.9747321605682373,0.22235123813152313,-0.11328128725290298,-0.38281264901161194,9.609378814697266,0.0,0.0,0.0
5008216,-0.008605963550508022,-0.019287122413516045,0.9747321605682373,0.22235123813152313,-0.11328128725290298,-0.38281264901161194,9.609378814697266,0.0,0.0,0.0
5012908,-0.008605963550508022,-0.019287122413516045,0.9747321605682373,0.22235123813152313,-0.07812502980232239,-0.38281264901161194,9.609378814697266,0.0,0.0,0.0
5017948,-0.008605963550508022,-0.019287122413516045,0.9747321605682373,0.22235123813152313,-0.07812502980232239,-0.38281264901161194,9.609378814697266,0.0,0.0,0.0
5023216,-0.008605963550508022,-0.019287122413516045,0.9747321605682373,0.22235123813152313,-0.07812502980232239,-0.38281264901161194,9.648441314697266,0.0,0.0,0.0
5028244,-0.008605963550508022,-0.019287122413516045,0.9747321605682373,0.22235123813152313,-0.07812502980232239,-0.38281264901161194,9.648441314697266,0.0,0.0,0.0
5032952,-0.008605963550508022,-0.019287122413516045,0.9747321605682373,0.22235123813152313,-0.07812502980232239,-0.38281264901161194,9.609378814697266,0.0,0.0,0.0
5037972,-0.008605963550508022,-0.019287122413516045,0.9747321605682373,0.22235123813152313,-0.07812502980232239,-0.38281264901161194,9.609378814697266,0.0,0.0,0.0
5044380,-0.008605963550508022,-0.019287122413516045,0.9747321605682373,0.22235123813152313,-0.039062514901161194,-0.38281264901161194,9.691410064697266,0.0,0.0,0.0
5049812,-0.008605963550508022,-0.019287122413516045,0.9747321605682373,0.22235123813152313,-0.07812502980232239,-0.42187514901161194,9.652347564697266,0.0,0.0,0.0
5055224,-0.008605963550508022,-0.019287122413516045,0.9747321605682373,0.22235123813152313,-0.07812502980232239,-0.42187514901161194,9.652347564697266,0.0,0.0,0.0
5060592,-0.008605963550508022,-0.019287122413516045,0.9747321605682373,0.22235123813152313,-0.039062514901161194,-0.38281264901161194,9.648441314697266,0.0,0.0,0.0
5066356,-0.008605963550508022,-0.019287122413516045,0.9747321605682373,0.22235123813152313,-0.039062514901161194,-0.38281264901161194,9.648441314697266,0.0,0.0,0.0
5071032,-0.008605963550508022,-0.019287122413516045,0.9747321605682373,0.22235123813152313,-0.07812502980232239,-0.42187514901161194,9.652347564697266,0.0,0.0,0.0
5076072,-0.008605963550508022,-0.019287122413516045,0.9747321605682373,0.22235123813152313,-0.07812502980232239,-0.42187514901161194,9.652347564697266,0.0,0.0,0.0
5080804,-0.008605963550508022,-0.019287122413516045,0.9747321605682373,0.22235123813152313,-0.11328128725290298,-0.42187514901161194,9.652347564697266,0.0,0.0,0.0
5085904,-0.008605963550508022,-0.019287122413516045,0.9747321605682373,0.22235123813152313,-0.11328128725290298,-0.42187514901161194,9.652347564697266,0.0,0.0,0.0
5091248,-0.008605963550508022,-0.019287122413516045,0.9747321605682373,0.22235123813152313,-0.07812502980232239,-0.38281264901161194,9.648441314697266,0.0,0.0,0.0
5096304,-0.008605963550508022,-0.019287122413516045,0.9747321605682373,0.22235123813152313,-0.07812502980232239,-0.38281264901161194,9.648441314697266,0.0,0.0,0.0
5101016,-0.008605963550508022,-0.019287122413516045,0.9747321605682373,0.22235123813152313,-0.07812502980232239,-0.42187514901161194,9.652347564697266,0.0,0.0,0.0
5107108,-0.008605963550508022,-0.019287122413516045,0.9747321605682373,0.22235123813152313,-0.07812502980232239,-0.42187514901161194,9.652347564697266,0.0,0.0,0.0
5111792,-0.008605963550508022,-0.019287122413516045,0.9747321605682373,0.22235123813152313,-0.07812502980232239,-0.38281264901161194,9.648441314697266,0.0,0.0,0.0
5116832,-0.008605963550508022,-0.019287122413516045,0.9747321605682373,0.22235123813152313,-0.07812502980232239,-0.38281264901161194,9.648441314697266,0.0,0.0,0.0
5121508,-0.008605963550508022,-0.019287122413516045,0.9747321605682373,0.22235123813152313,-0.07812502980232239,-0.38281264901161194,9.648441314697266,0.0,0.0,0.0
5126968,-0.008605963550508022,-0.019287122413516045,0.9747321605682373,0.22235123813152313,-0.07812502980232239,-0.38281264901161194,9.648441314697266,0.0,0.0,0.0
5131288,-0.008605963550508022,-0.019287122413516045,0.9747321605682373,0.22235123813152313,-0.11328128725290298,-0.42187514901161194,9.578128814697266,0.0,0.0,0.0
5136660,-0.008605963550508022,-0.019287122413516045,0.9747321605682373,0.22235123813152313,-0.11328128725290298,-0.42187514901161194,9.578128814697266,0.0,0.0,0.0
5141348,-0.008605963550508022,-0.019287122413516045,0.9747321605682373,0.22235123813152313,-0.039062514901161194,-0.38281264901161194,9.609378814697266,0.0,0.0,0.0
5147160,-0.008605963550508022,-0.019287122413516045,0.9747321605682373,0.22235123813152313,-0.039062514901161194,-0.38281264901161194,9.609378814697266,0.0,0.0,0.0
5151768,-0.008605963550508022,-0.019287122413516045,0.9747321605682373,0.22235123813152313,-0.07812502980232239,-0.42187514901161194,9.613285064697266,0.0,0.0,0.0
5157272,-0.008605963550508022,-0.019287122413516045,0.9747321605682373,0.22235123813152313,-0.07812502980232239,-0.42187514901161194,9.613285064697266,0.0,0.0,0.0
5163684,-0.008605963550508022,-0.019287122413516045,0.9747321605682373,0.22235123813152313,-0.07812502980232239,-0.38281264901161194,9.648441314697266,0.0,0.0,0.0
5168376,-0.008605963550508022,-0.019287122413516045,0.9747321605682373,0.22235123813152313,-0.039062514901161194,-0.42187514901161194,9.613285064697266,0.0,0.0,0.0
5173564,-0.008605963550508022,-0.019287122413516045,0.9747321605682373,0.22235123813152313,-0.039062514901161194,-0.42187514901161194,9.613285064697266,0.0,0.0,0.0
5178256,-0.008605963550508022,-0.019287122413516045,0.9747321605682373,0.22235123813152313,-0.07812502980232239,-0.38281264901161194,9.648441314697266,0.0,0.0,0.0
5183424,-0.008605963550508022,-0.019287122413516045,0.9747321605682373,0.22235123813152313,-0.07812502980232239,-0.38281264901161194,9.648441314697266,0.0,0.0,0.0
5188680,-0.008605963550508022,-0.019287122413516045,0.9747321605682373,0.22235123813152313,-0.11328128725290298,-0.38281264901161194,9.609378814697266,0.0,0.0,0.0
5193800,-0.008605963550508022,-0.019287122413516045,0.9747321605682373,0.22235123813152313,-0.11328128725290298,-0.38281264901161194,9.609378814697266,0.0,0.0,0.0
5199044,-0.008605963550508022,-0.019287122413516045,0.9747321605682373,0.22235123813152313,-0.039062514901161194,-0.38281264901161194,9.691410064697266,0.0,0.0,0.0
5205912,-0.008605963550508022,-0.019287122413516045,0.9747321605682373,0.22235123813152313,-0.039062514901161194,-0.38281264901161194,9.691410064697266,0.0,0.0,0.0
5210596,-0.008605963550508022,-0.019287122413516045,0.9747321605682373,0.22235123813152313,-0.039062514901161194,-0.38281264901161194,9.582035064697266,0.0,0.0,0.0
5215648,-0.008605963550508022,-0.019287122413516045,0.9747321605682373,0.22235123813152313,-0.039062514901161194,-0.38281264901161194,9.582035064697266,0.0,0.0,0.0
5220336,-0.008605963550508022,-0.019287122413516045,0.9747321605682373,0.22235123813152313,-0.039062514901161194,-0.42187514901161194,9.652347564697266,0.0,0.0,0.0
5225396,-0.008605963550508022,-0.019287122413516045,0.9747321605682373,0.22235123813152313,-0.039062514901161194,-0.42187514901161194,9.652347564697266,0.0,0.0,0.0
5230068,-0.008605963550508022,-0.019287122413516045,0.9747321605682373,0.22235123813152313,-0.039062514901161194,-0.38281264901161194,9.648441314697266,0.0,0.0,0.0
5235468,-0.008605963550508022,-0.019287122413516045,0.9747321605682373,0.22235123813152313,-0.039062514901161194,-0.38281264901161194,9.648441314697266,0.0,0.0,0.0
5240172,-0.008605963550508022,-0.019287122413516045,0.9747321605682373,0.22235123813152313,-0.11328128725290298,-0.42187514901161194,9.613285064697266,0.0,0.0,0.0
5245256,-0.008605963550508022,-0.019287122413516045,0.9747321605682373,0.22235123813152313,-0.11328128725290298,-0.42187514901161194,9.613285064697266,0.0,0.0,0.0
5251580,-0.008605963550508022,-0.019287122413516045,0.9747321605682373,0.22235123813152313,-0.11328128725290298,-0.42187514901161194,9.687503814697266,0.0,0.0,0.0
5256276,-0.008605963550508022,-0.019287122413516045,0.9747321605682373,0.22235123813152313,-0.07812502980232239,-0.42187514901161194,9.652347564697266,0.0,0.0,0.0
5261652,-0.008605963550508022,-0.019287122413516045,0.9747321605682373,0.22235123813152313,-0.039062514901161194,-0.38281264901161194,9.609378814697266,0.0,0.0,0.0
5266944,-0.008605963550508022,-0.019287122413516045,0.9747321605682373,0.22235123813152313,-0.07812502980232239,-0.38281264901161194,9.648441314697266,0.0,0.0,0.0
5272692,-0.008605963550508022,-0.019287122413516045,0.9747321605682373,0.22235123813152313,-0.07812502980232239,-0.38281264901161194,9.691410064697266,0.0,0.0,0.0
5277412,-0.008605963550508022,-0.019287122413516045,0.9747321605682373,0.22235123813152313,-0.039062514901161194,-0.38281264901161194,9.609378814697266,0.0,0.0,0.0
5282544,-0.008605963550508022,-0.019287122413516045,0.9747321605682373,0.22235123813152313,-0.039062514901161194,-0.38281264901161194,9.609378814697266,0.0,0.0,0.0
5287928,-0.008605963550508022,-0.019287122413516045,0.9747321605682373,0.22235123813152313,-0.039062514901161194,-0.42187514901161194,9.687503814697266,0.0,0.0,0.0
5293660,-0.008605963550508022,-0.019287122413516045,0.9747321605682373,0.22235123813152313,-0.039062514901161194,-0.42187514901161194,9.687503814697266,0.0,0.0,0.0
5298352,-0.008605963550508022,-0.019287122413516045,0.9747321605682373,0.22235123813152313,-0.039062514901161194,-0.42187514901161194,9.578128814697266,0.0,0.0,0.0
5304384,-0.008605963550508022,-0.019287122413516045,0.9747321605682373,0.22235123813152313,-0.039062514901161194,-0.42187514901161194,9.578128814697266,0.0,0.0,0.0
5309064,-0.008605963550508022,-0.019287122413516045,0.9747321605682373,0.22235123813152313,-0.07812502980232239,-0.42187514901161194,9.687503814697266,0.0,0.0,0.0
5314136,-0.008605963550508022,-0.019287122413516045,0.9747321605682373,0.22235123813152313,-0.07812502980232239,-0.42187514901161194,9.687503814697266,0.0,0.0,0.0
5318912,-0.008605963550508022,-0.019287122413516045,0.9747321605682373,0.22235123813152313,-0.07812502980232239,-0.38281264901161194,9.609378814697266,0.0,0.0,0.0
5324372,-0.008605963550508022,-0.019287122413516045,0.9747321605682373,0.22235123813152313,-0.07812502980232239,-0.38281264901161194,9.609378814697266,0.0,0.0,0.0
5328692,-0.008605963550508022,-0.019287122413516045,0.9747321605682373,0.22235123813152313,-0.039062514901161194,-0.42187514901161194,9.613285064697266,0.0,0.0,0.0
5334088,-0.008605963550508022,-0.019287122413516045,0.9747321605682373,0.22235123813152313,-0.039062514901161194,-0.42187514901161194,9.613285064697266,0.0,0.0,0.0
5338756,-0.008605963550508022,-0.019287122413516045,0.9747321605682373,0.22235123813152313,-0.11328128725290298,-0.38281264901161194,9.609378814697266,0.0,0.0,0.0
5344532,-0.008605963550508022,-0.019287122413516045,0.9747321605682373,0.22235123813152313,-0.11328128725290298,-0.38281264901161194,9.609378814697266,0.0,0.0,0.0
5349364,-0.008605963550508022,-0.019287122413516045,0.9747321605682373,0.22235123813152313,-0.039062514901161194,-0.42187514901161194,9.652347564697266,0.0,0.0,0.0
5354760,-0.008605963550508022,-0.019287122413516045,0.9747321605682373,0.22235123813152313,-0.039062514901161194,-0.42187514901161194,9.652347564697266,0.0,0.0,0.0
5360028,-0.008605963550508022,-0.019287122413516045,0.9747321605682373,0.22235123813152313,-0.039062514901161194,-0.42187514901161194,9.652347564697266,0.0,0.0,0.0
5365448,-0.008666998706758022,-0.019226087257266045,0.9747321605682373,0.22235123813152313,-0.039062514901161194,-0.42187514901161194,9.652347564697266,0.0,0.0,0.0
5371608,-0.008666998706758022,-0.019226087257266045,0.9747321605682373,0.22235123813152313,-0.039062514901161194,-0.38281264901161194,9.648441314697266,0.0,0.0,0.0
5376316,-0.008666998706758022,-0.019226087257266045,0.9747321605682373,0.22235123813152313,-0.07812502980232239,-0.38281264901161194,9.648441314697266,0.0,0.0,0.0
5381384,-0.008666998706758022,-0.019226087257266045,0.9747321605682373,0.22235123813152313,-0.07812502980232239,-0.38281264901161194,9.648441314697266,0.0,0.0,0.0
5386824,-0.008666998706758022,-0.019226087257266045,0.9747321605682373,0.22235123813152313,-0.11328128725290298,-0.42187514901161194,9.613285064697266,0.0,0.0,0.0
5392500,-0.008666998706758022,-0.019226087257266045,0.9747321605682373,0.22235123813152313,-0.11328128725290298,-0.42187514901161194,9.613285064697266,0.0,0.0,0.0
5398104,-0.008666998706758022,-0.019226087257266045,0.9747321605682373,0.22235123813152313,-0.07812502980232239,-0.42187514901161194,9.652347564697266,0.0,0.0,0.0
5403868,-0.008666998706758022,-0.019226087257266045,0.9747321605682373,0.22235123813152313,-0.07812502980232239,-0.42187514901161194,9.652347564697266,0.0,0.0,0.0
5408196,-0.008666998706758022,-0.019226087257266045,0.9747321605682373,0.22235123813152313,-0.07812502980232239,-0.42187514901161194,9.652347564697266,0.0,0.0,0.0
5413620,-0.008666998706758022,-0.019226087257266045,0.9747321605682373,0.22235123813152313,-0.07812502980232239,-0.42187514901161194,9.652347564697266,0.0,0.0,0.0
5418400,-0.008666998706758022,-0.019226087257266045,0.9747321605682373,0.22235123813152313,-0.07812502980232239,-0.38281264901161194,9.648441314697266,0.0,0.0,0.0
5423804,-0.008666998706758022,-0.019226087257266045,0.9747321605682373,0.22235123813152313,-0.07812502980232239,-0.38281264901161194,9.648441314697266,0.0,0.0,0.0
5428120,-0.008666998706758022,-0.019226087257266045,0.9747321605682373,0.22235123813152313,-0.11328128725290298,-0.42187514901161194,9.613285064697266,0.0,0.0,0.0
5433528,-0.008666998706758022,-0.019226087257266045,0.9747321605682373,0.22235123813152313,-0.11328128725290298,-0.42187514901161194,9.613285064697266,0.0,0.0,0.0
5439976,-0.008666998706758022,-0.019226087257266045,0.9747321605682373,0.22235123813152313,-0.039062514901161194,-0.38281264901161194,9.609378814697266,0.0,0.0,0.0
5445248,-0.008666998706758022,-0.019226087257266045,0.9747321605682373,0.22235123813152313,-0.07812502980232239,-0.42187514901161194,9.578128814697266,0.0,0.0,0.0
5450296,-0.008666998706758022,-0.019226087257266045,0.9747321605682373,0.22235123813152313,-0.07812502980232239,-0.42187514901161194,9.578128814697266,0.0,0.0,0.0
5455924,-0.008666998706758022,-0.019226087257266045,0.9747321605682373,0.22235123813152313,-0.07812502980232239,-0.38281264901161194,9.648441314697266,0.0,0.0,0.0
5461324,-0.008666998706758022,-0.019226087257266045,0.9747321605682373,0.22235123813152313,-0.07812502980232239,-0.38281264901161194,9.648441314697266,0.0,0.0,0.0
5466632,-0.008666998706758022,-0.019226087257266045,0.9747321605682373,0.22235123813152313,-0.07812502980232239,-0.42187514901161194,9.578128814697266,0.0,0.0,0.0
5471976,-0.008666998706758022,-0.019226087257266045,0.9747321605682373,0.22235123813152313,-0.07812502980232239,-0.42187514901161194,9.578128814697266,0.0,0.0,0.0
5476668,-0.008666998706758022,-0.019226087257266045,0.9747321605682373,0.22235123813152313,-0.07812502980232239,-0.38281264901161194,9.609378814697266,0.0,0.0,0.0
5482192,-0.008666998706758022,-0.019226087257266045,0.9747321605682373,0.22235123813152313,-0.07812502980232239,-0.38281264901161194,9.609378814697266,0.0,0.0,0.0
5487028,-0.008666998706758022,-0.019226087257266045,0.9747321605682373,0.22235123813152313,-0.07812502980232239,-0.42187514901161194,9.613285064697266,0.0,0.0,0.0
5492084,-0.008666998706758022,-0.019226087257266045,0.9747321605682373,0.22235123813152313,-0.07812502980232239,-0.42187514901161194,9.613285064697266,0.0,0.0,0.0
5496852,-0.008666998706758022,-0.019226087257266045,0.9747321605682373,0.22235123813152313,-0.07812502980232239,-0.42187514901161194,9.652347564697266,0.0,0.0,0.0
5502772,-0.008666998706758022,-0.019226087257266045,0.9747321605682373,0.22235123813152313,-0.07812502980232239,-0.42187514901161194,9.652347564697266,0.0,0.0,0.0
5507116,-0.008666998706758022,-0.019226087257266045,0.9747321605682373,0.22235123813152313,-0.039062514901161194,-0.38281264901161194,9.648441314697266,0.0,0.0,0.0
5512156,-0.008666998706758022,-0.019226087257266045,0.9747321605682373,0.22235123813152313,-0.039062514901161194,-0.38281264901161194,9.648441314697266,0.0,0.0,0.0
5516844,-0.008666998706758022,-0.019226087257266045,0.9747321605682373,0.22235123813152313,-0.039062514901161194,-0.38281264901161194,9.609378814697266,0.0,0.0,0.0
5522280,-0.008666998706758022,-0.019226087257266045,0.9747321605682373,0.22235123813152313,-0.039062514901161194,-0.38281264901161194,9.609378814697266,0.0,0.0,0.0
5526608,-0.008666998706758022,-0.019226087257266045,0.9747321605682373,0.22235123813152313,-0.039062514901161194,-0.38281264901161194,9.648441314697266,0.0,0.0,0.0
5532296,-0.008666998706758022,-0.019226087257266045,0.9747321605682373,0.22235123813152313,-0.039062514901161194,-0.38281264901161194,9.648441314697266,0.0,0.0,0.0
5538660,-0.008666998706758022,-0.019226087257266045,0.9747321605682373,0.22235123813152313,-0.11328128725290298,-0.38281264901161194,9.609378814697266,0.0,0.0,0.0
5543904,-0.008666998706758022,-0.019226087257266045,0.9747321605682373,0.22235123813152313,-0.11328128725290298,-0.38281264901161194,9.648441314697266,0.0,0.0,0.0
5548940,-0.008666998706758022,-0.019226087257266045,0.9747321605682373,0.22235123813152313,-0.11328128725290298,-0.38281264901161194,9.648441314697266,0.0,0.0,0.0
5554568,-0.008666998706758022,-0.019226087257266045,0.9747321605682373,0.22235123813152313,-0.07812502980232239,-0.38281264901161194,9.609378814697266,0.0,0.0,0.0
5559640,-0.008666998706758022,-0.019226087257266045,0.9747321605682373,0.22235123813152313,-0.07812502980232239,-0.38281264901161194,9.609378814697266,0.0,0.0,0.0
5564348,-0.008666998706758022,-0.019226087257266045,0.9747321605682373,0.22235123813152313,-0.039062514901161194,-0.42187514901161194,9.652347564697266,0.0,0.0,0.0
5569432,-0.008666998706758022,-0.019226087257266045,0.9747321605682373,0.22235123813152313,-0.039062514901161194,-0.42187514901161194,9.652347564697266,0.0,0.0,0.0
5574112,-0.008666998706758022,-0.019226087257266045,0.9747321605682373,0.22235123813152313,-0.07812502980232239,-0.38281264901161194,9.648441314697266,0.0,0.0,0.0
5579216,-0.008666998706758022,-0.019226087257266045,0.9747321605682373,0.22235123813152313,-0.07812502980232239,-0.38281264901161194,9.648441314697266,0.0,0.0,0.0
5584492,-0.008666998706758022,-0.019226087257266045,0.9747321605682373,0.22235123813152313,-0.11328128725290298,-0.42187514901161194,9.652347564697266,0.0,0.0,0.0
5589632,-0.008666998706758022,-0.019226087257266045,0.9747321605682373,0.22235123813152313,-0.11328128725290298,-0.42187514901161194,9.652347564697266,0.0,0.0,0.0
5594960,-0.008666998706758022,-0.019226087257266045,0.9747321605682373,0.22235123813152313,-0.07812502980232239,-0.42187514901161194,9.613285064697266,0.0,0.0,0.0
5601192,-0.008666998706758022,-0.019226087257266045,0.9747321605682373,0.22235123813152313,-0.07812502980232239,-0.42187514901161194,9.613285064697266,0.0,0.0,0.0
5605512,-0.008666998706758022,-0.019226087257266045,0.9747321605682373,0.22235123813152313,-0.07812502980232239,-0.38281264901161194,9.648441314697266,0.0,0.0,0.0
5610612,-0.008666998706758022,-0.019226087257266045,0.9747321605682373,0.22235123813152313,-0.07812502980232239,-0.38281264901161194,9.648441314697266,0.0,0.0,0.0
5615392,-0.008666998706758022,-0.019226087257266045,0.9747321605682373,0.22235123813152313,-0.07812502980232239,-0.38281264901161194,9.609378814697266,0.0,0.0,0.0
5620476,-0.008666998706758022,-0.019226087257266045,0.9747321605682373,0.22235123813152313,-0.07812502980232239,-0.38281264901161194,9.609378814697266,0.0,0.0,0.0
5625292,-0.008666998706758022,-0.019226087257266045,0.9747321605682373,0.22235123813152313,-0.039062514901161194,-0.38281264901161194,9.691410064697266,0.0,0.0,0.0
5630384,-0.008666998706758022,-0.019226087257266045,0.9747321605682373,0.22235123813152313,-0.039062514901161194,-0.38281264901161194,9.691410064697266,0.0,0.0,0.0
5635096,-0.008666998706758022,-0.019226087257266045,0.9747321605682373,0.22235123813152313,-0.07812502980232239,-0.38281264901161194,9.609378814697266,0.0,0.0,0.0
5640836,-0.008666998706758022,-0.019226087257266045,0.9747321605682373,0.22235123813152313,-0.07812502980232239,-0.38281264901161194,9.609378814697266,0.0,0.0,0.0
5645816,-0.008666998706758022,-0.019226087257266045,0.9747321605682373,0.22235123813152313,-0.11328128725290298,-0.38281264901161194,9.609378814697266,0.0,0.0,0.0
5651228,-0.008666998706758022,-0.019226087257266045,0.9747321605682373,0.22235123813152313,-0.11328128725290298,-0.38281264901161194,9.609378814697266,0.0,0.0,0.0
5656500,-0.008666998706758022,-0.019226087257266045,0.9747321605682373,0.22235123813152313,-0.039062514901161194,-0.38281264901161194,9.648441314697266,0.0,0.0,0.0
5661952,-0.008666998706758022,-0.019226087257266045,0.9747321605682373,0.22235123813152313,-0.039062514901161194,-0.38281264901161194,9.648441314697266,0.0,0.0,0.0
5667340,-0.008666998706758022,-0.019226087257266045,0.9747321605682373,0.22235123813152313,-0.11328128725290298,-0.38281264901161194,9.609378814697266,0.0,0.0,0.0
5672604,-0.008666998706758022,-0.019226087257266045,0.9747321605682373,0.22235123813152313,-0.07812502980232239,-0.38281264901161194,9.648441314697266,0.0,0.0,0.0
5677652,-0.008666998706758022,-0.019226087257266045,0.9747321605682373,0.22235123813152313,-0.07812502980232239,-0.38281264901161194,9.648441314697266,0.0,0.0,0.0
5682956,-0.008666998706758022,-0.019226087257266045,0.9747321605682373,0.22235123813152313,-0.11328128725290298,-0.38281264901161194,9.691410064697266,0.0,0.0,0.0
5688020,-0.008666998706758022,-0.019226087257266045,0.9747321605682373,0.22235123813152313,-0.11328128725290298,-0.38281264901161194,9.691410064697266,0.0,0.0,0.0
5693268,-0.008666998706758022,-0.019226087257266045,0.9747321605682373,0.22235123813152313,-0.11328128725290298,-0.42187514901161194,9.687503814697266,0.0,0.0,0.0
5699976,-0.008666998706758022,-0.019226087257266045,0.9747321605682373,0.22235123813152313,-0.07812502980232239,-0.38281264901161194,9.609378814697266,0.0,0.0,0.0
5704660,-0.008666998706758022,-0.019226087257266045,0.9747321605682373,0.22235123813152313,-0.07812502980232239,-0.38281264901161194,9.609378814697266,0.0,0.0,0.0
5709700,-0.008666998706758022,-0.019226087257266045,0.9747321605682373,0.22235123813152313,-0.07812502980232239,-0.38281264901161194,9.609378814697266,0.0,0.0,0.0
5715464,-0.008666998706758022,-0.019226087257266045,0.9747321605682373,0.22235123813152313,-0.07812502980232239,-0.42187514901161194,9.687503814697266,0.0,0.0,0.0
5720712,-0.008666998706758022,-0.019226087257266045,0.9747321605682373,0.22235123813152313,-0.039062514901161194,-0.38281264901161194,9.609378814697266,0.0,0.0,0.0
5725028,-0.008666998706758022,-0.019226087257266045,0.9747321605682373,0.22235123813152313,-0.039062514901161194,-0.38281264901161194,9.609378814697266,0.0,0.0,0.0
5730420,-0.008666998706758022,-0.019165052101016045,0.9747321605682373,0.22235123813152313,-0.039062514901161194,-0.38281264901161194,9.609378814697266,0.0,0.0,0.0
5734736,-0.008666998706758022,-0.019165052101016045,0.9747321605682373,0.22235123813152313,-0.039062514901161194,-0.38281264901161194,9.648441314697266,0.0,0.0,0.0
5740488,-0.008666998706758022,-0.019165052101016045,0.9747321605682373,0.22235123813152313,-0.039062514901161194,-0.38281264901161194,9.648441314697266,0.0,0.0,0.0
5744904,-0.008666998706758022,-0.019165052101016045,0.9747321605682373,0.22235123813152313,-0.039062514901161194,-0.38281264901161194,9.648441314697266,0.0,0.0,0.0
5749964,-0.008666998706758022,-0.019165052101016045,0.9747321605682373,0.22235123813152313,-0.039062514901161194,-0.38281264901161194,9.648441314697266,0.0,0.0,0.0
5754380,-0.008666998706758022,-0.019165052101016045,0.9747321605682373,0.22235123813152313,-0.039062514901161194,-0.38281264901161194,9.648441314697266,0.0,0.0,0.0
5760152,-0.008666998706758022,-0.019165052101016045,0.9747321605682373,0.22235123813152313,-0.039062514901161194,-0.38281264901161194,9.648441314697266,0.0,0.0,0.0
5764460,-0.008666998706758022,-0.019165052101016045,0.9747321605682373,0.22235123813152313,-0.039062514901161194,-0.38281264901161194,9.609378814697266,0.0,0.0,0.0
5769516,-0.008666998706758022,-0.019165052101016045,0.9747321605682373,0.22235123813152313,-0.039062514901161194,-0.38281264901161194,9.609378814697266,0.0,0.0,0.0
5774240,-0.008666998706758022,-0.019165052101016045,0.9747321605682373,0.22235123813152313,-0.07812502980232239,-0.38281264901161194,9.648441314697266,0.0,0.0,0.0
5779992,-0.008666998706758022,-0.019165052101016045,0.9747321605682373,0.22235123813152313,-0.07812502980232239,-0.38281264901161194,9.648441314697266,0.0,0.0,0.0
5785400,-0.008666998706758022,-0.019165052101016045,0.9747321605682373,0.22235123813152313,-0.07812502980232239,-0.38281264901161194,9.691410064697266,0.0,0.0,0.0
5790112,-0.008666998706758022,-0.019165052101016045,0.9747321605682373,0.22235123813152313,-0.07812502980232239,-0.38281264901161194,9.582035064697266,0.0,0.0,0.0
5795148,-0.008666998706758022,-0.019165052101016045,0.9747321605682373,0.22235123813152313,-0.07812502980232239,-0.38281264901161194,9.582035064697266,0.0,0.0,0.0
5800424,-0.008666998706758022,-0.019165052101016045,0.9747321605682373,0.22235123813152313,-0.07812502980232239,-0.38281264901161194,9.648441314697266,0.0,0.0,0.0
5805508,-0.008666998706758022,-0.019165052101016045,0.9747321605682373,0.22235123813152313,-0.07812502980232239,-0.38281264901161194,9.648441314697266,0.0,0.0,0.0
5810216,-0.008666998706758022,-0.019165052101016045,0.9747321605682373,0.22235123813152313,-0.11328128725290298,-0.38281264901161194,9.609378814697266,0.0,0.0,0.0
5815696,-0.008666998706758022,-0.019165052101016045,0.9747321605682373,0.22235123813152313,-0.07812502980232239,-0.38281264901161194,9.609378814697266,0.0,0.0,0.0
5820972,-0.008666998706758022,-0.019165052101016045,0.9747321605682373,0.22235123813152313,-0.07812502980232239,-0.38281264901161194,9.609378814697266,0.0,0.0,0.0
5826740,-0.008666998706758022,-0.019165052101016045,0.9747321605682373,0.22235123813152313,-0.07812502980232239,-0.38281264901161194,9.609378814697266,0.0,0.0,0.0
5831976,-0.008666998706758022,-0.019165052101016045,0.9747321605682373,0.22235123813152313,-0.07812502980232239,-0.38281264901161194,9.609378814697266,0.0,0.0,0.0
5837596,-0.008666998706758022,-0.019165052101016045,0.9747321605682373,0.22235123813152313,-0.07812502980232239,-0.38281264901161194,9.609378814697266,0.0,0.0,0.0
5841908,-0.008666998706758022,-0.019165052101016045,0.9747321605682373,0.22235123813152313,-0.039062514901161194,-0.42187514901161194,9.652347564697266,0.0,0.0,0.0
5846996,-0.008666998706758022,-0.019165052101016045,0.9747321605682373,0.22235123813152313,-0.039062514901161194,-0.42187514901161194,9.652347564697266,0.0,0.0,0.0
5851684,-0.008666998706758022,-0.019165052101016045,0.9747321605682373,0.22235123813152313,-0.07812502980232239,-0.38281264901161194,9.542972564697266,0.0,0.0,0.0
5856756,-0.008666998706758022,-0.019165052101016045,0.9747321605682373,0.22235123813152313,-0.07812502980232239,-0.38281264901161194,9.542972564697266,0.0,0.0,0.0
5862104,-0.008666998706758022,-0.019165052101016045,0.9747321605682373,0.22235123813152313,-0.07812502980232239,-0.42187514901161194,9.613285064697266,0.0,0.0,0.0
5867148,-0.008666998706758022,-0.019165052101016045,0.9747321605682373,0.22235123813152313,-0.07812502980232239,-0.42187514901161194,9.613285064697266,0.0,0.0,0.0
5871832,-0.008666998706758022,-0.019165052101016045,0.9747321605682373,0.22235123813152313,-0.039062514901161194,-0.38281264901161194,9.609378814697266,0.0,0.0,0.0
5877616,-0.008666998706758022,-0.019165052101016045,0.9747321605682373,0.22235123813152313,-0.039062514901161194,-0.38281264901161194,9.609378814697266,0.0,0.0,0.0
5882284,-0.008666998706758022,-0.019165052101016045,0.9747321605682373,0.22235123813152313,-0.07812502980232239,-0.38281264901161194,9.691410064697266,0.0,0.0,0.0
5887708,-0.008666998706758022,-0.019165052101016045,0.9747321605682373,0.22235123813152313,-0.07812502980232239,-0.38281264901161194,9.691410064697266,0.0,0.0,0.0
5893500,-0.008666998706758022,-0.019165052101016045,0.9747321605682373,0.22235123813152313,-0.039062514901161194,-0.38281264901161194,9.648441314697266,0.0,0.0,0.0
5898804,-0.008666998706758022,-0.019165052101016045,0.9747321605682373,0.22235123813152313,-0.039062514901161194,-0.38281264901161194,9.691410064697266,0.0,0.0,0.0
5903148,-0.008666998706758022,-0.019165052101016045,0.9747321605682373,0.22235123813152313,-0.039062514901161194,-0.38281264901161194,9.691410064697266,0.0,0.0,0.0
5907680,-0.008666998706758022,-0.019226087257266045,0.9747321605682373,0.22235123813152313,-0.039062514901161194,-0.38281264901161194,9.691410064697266,0.0,0.0,0.0
5914032,-0.008666998706758022,-0.019226087257266045,0.9747321605682373,0.22235123813152313,-0.039062514901161194,-0.38281264901161194,9.691410064697266,0.0,0.0,0.0
5919400,-0.008666998706758022,-0.019226087257266045,0.9747321605682373,0.22235123813152313,-0.07812502980232239,-0.38281264901161194,9.582035064697266,0.0,0.0,0.0
5924492,-0.008666998706758022,-0.019226087257266045,0.9747321605682373,0.22235123813152313,-0.07812502980232239,-0.38281264901161194,9.582035064697266,0.0,0.0,0.0
5930104,-0.008666998706758022,-0.019226087257266045,0.9747321605682373,0.22235123813152313,-0.07812502980232239,-0.42187514901161194,9.652347564697266,0.0,0.0,0.0
5936072,-0.008666998706758022,-0.019226087257266045,0.9747321605682373,0.22235123813152313,-0.07812502980232239,-0.42187514901161194,9.652347564697266,0.0,0.0,0.0
5940756,-0.008666998706758022,-0.019226087257266045,0.9747321605682373,0.22235123813152313,-0.039062514901161194,-0.42187514901161194,9.613285064697266,0.0,0.0,0.0
5946220,-0.008666998706758022,-0.019226087257266045,0.9747321605682373,0.22235123813152313,-0.039062514901161194,-0.42187514901161194,9.613285064697266,0.0,0.0,0.0
5950904,-0.008666998706758022,-0.019226087257266045,0.9747321605682373,0.22235123813152313,-0.039062514901161194,-0.42187514901161194,9.613285064697266,0.0,0.0,0.0
5956192,-0.008666998706758022,-0.019226087257266045,0.9747321605682373,0.22235123813152313,-0.039062514901161194,-0.42187514901161194,9.613285064697266,0.0,0.0,0.0
5960880,-0.008666998706758022,-0.019226087257266045,0.9747321605682373,0.22235123813152313,-0.039062514901161194,-0.38281264901161194,9.609378814697266,0.0,0.0,0.0
5966176,-0.008666998706758022,-0.019226087257266045,0.9747321605682373,0.22235123813152313,-0.039062514901161194,-0.38281264901161194,9.609378814697266,0.0,0.0,0.0
5970848,-0.008666998706758022,-0.019226087257266045,0.9747321605682373,0.22235123813152313,-0.07812502980232239,-0.38281264901161194,9.609378814697266,0.0,0.0,0.0
5976244,-0.008666998706758022,-0.019226087257266045,0.9747321605682373,0.22235123813152313,-0.07812502980232239,-0.38281264901161194,9.609378814697266,0.0,0.0,0.0
5981080,-0.008666998706758022,-0.019226087257266045,0.9747321605682373,0.22235123813152313,-0.11328128725290298,-0.42187514901161194,9.613285064697266,0.0,0.0,0.0
5986116,-0.008666998706758022,-0.019226087257266045,0.9747321605682373,0.22235123813152313,-0.11328128725290298,-0.42187514901161194,9.613285064697266,0.0,0.0,0.0
5990788,-0.008666998706758022,-0.019226087257266045,0.9747321605682373,0.22235123813152313,-0.039062514901161194,-0.42187514901161194,9.613285064697266,0.0,0.0,0.0
5996224,-0.008666998706758022,-0.019226087257266045,0.9747321605682373,0.22235123813152313,-0.039062514901161194,-0.42187514901161194,9.613285064697266,0.0,0.0,0.0
6000536,-0.008666998706758022,-0.019226087257266045,0.9747321605682373,0.22235123813152313,-0.039062514901161194,-0.42187514901161194,9.687503814697266,0.0,0.0,0.0
6005940,-0.008666998706758022,-0.019226087257266045,0.9747321605682373,0.22235123813152313,-0.039062514901161194,-0.42187514901161194,9.687503814697266,0.0,0.0,0.0
6010684,-0.008666998706758022,-0.019226087257266045,0.9747321605682373,0.22235123813152313,-0.07812502980232239,-0.38281264901161194,9.648441314697266,0.0,0.0,0.0
6016116,-0.008666998706758022,-0.019226087257266045,0.9747321605682373,0.22235123813152313,-0.07812502980232239,-0.38281264901161194,9.648441314697266,0.0,0.0,0.0
6020448,-0.008666998706758022,-0.019226087257266045,0.9747321605682373,0.22235123813152313,-0.039062514901161194,-0.38281264901161194,9.609378814697266,0.0,0.0,0.0
6026240,-0.008666998706758022,-0.019226087257266045,0.9747321605682373,0.22235123813152313,-0.039062514901161194,-0.38281264901161194,9.609378814697266,0.0,0.0,0.0
6032580,-0.008666998706758022,-0.019226087257266045,0.9747321605682373,0.22235123813152313,-0.07812502980232239,-0.38281264901161194,9.609378814697266,0.0,0.0,0.0
6037856,-0.008666998706758022,-0.019226087257266045,0.9747321605682373,0.22235123813152313,-0.07812502980232239,-0.42187514901161194,9.613285064697266,0.0,0.0,0.0
6043264,-0.008666998706758022,-0.019226087257266045,0.9747321605682373,0.22235123813152313,-0.07812502980232239,-0.38281264901161194,9.609378814697266,0.0,0.0,0.0
6047960,-0.008666998706758022,-0.019226087257266045,0.9747321605682373,0.22235123813152313,-0.11328128725290298,-0.38281264901161194,9.691410064697266,0.0,0.0,0.0
6053040,-0.008666998706758022,-0.019226087257266045,0.9747321605682373,0.22235123813152313,-0.11328128725290298,-0.38281264901161194,9.691410064697266,0.0,0.0,0.0
6058304,-0.008666998706758022,-0.019226087257266045,0.9747321605682373,0.22235123813152313,-0.07812502980232239,-0.42187514901161194,9.613285064697266,0.0,0.0,0.0
6063468,-0.008666998706758022,-0.019226087257266045,0.9747321605682373,0.22235123813152313,-0.07812502980232239,-0.42187514901161194,9.613285064697266,0.0,0.0,0.0
6068144,-0.008666998706758022,-0.019226087257266045,0.9747321605682373,0.22235123813152313,-0.039062514901161194,-0.42187514901161194,9.613285064697266,0.0,0.0,0.0
6073540,-0.008666998706758022,-0.019226087257266045,0.9747321605682373,0.22235123813152313,-0.039062514901161194,-0.42187514901161194,9.613285064697266,0.0,0.0,0.0
6078784,-0.008666998706758022,-0.019226087257266045,0.9747321605682373,0.22235123813152313,-0.07812502980232239,-0.38281264901161194,9.648441314697266,0.0,0.0,0.0
