Timestamp,QI,QJ,QK,QR,AX,AY,AZ
2459276,0.0,0.0,0.0,0.0,-0.34375011920928955,0.15234380960464478,9.648441314697266
2462984,0.0,0.0,0.0,0.0,-0.26953133940696716,0.15234380960464478,9.648441314697266
2467048,0.0,0.0,0.0,0.0,-0.30468761920928955,0.19140632450580597,9.691410064697266
2471132,0.0,0.0,0.0,0.0,-0.30468761920928955,0.23046883940696716,9.582035064697266
2475040,0.0,0.0,0.0,0.0,-0.30468761920928955,0.23046883940696716,9.691410064697266
2478920,0.0,0.0,0.0,0.0,-0.34375011920928955,0.23046883940696716,9.613285064697266
2482784,0.0,0.0,0.0,0.0,-0.30468761920928955,0.19140632450580597,9.691410064697266
2486640,0.0,0.0,0.0,0.0,-0.38281264901161194,0.23046883940696716,9.652347564697266
2490528,0.0,0.0,0.0,0.0,-0.34375011920928955,0.11328128725290298,9.582035064697266
2494552,0.0,0.0,0.0,0.0,-0.34375011920928955,0.19140632450580597,9.613285064697266
2498000,0.0,0.0,0.0,0.0,-0.30468761920928955,0.26953133940696716,9.613285064697266
2503292,0.0,0.0,0.0,0.0,-0.34375011920928955,0.23046883940696716,9.578128814697266
2506968,0.0,0.0,0.0,0.0,-0.30468761920928955,0.30468761920928955,9.609378814697266
2510640,0.0,0.0,0.0,0.0,-0.34375011920928955,0.19140632450580597,9.578128814697266
2516756,0.010192878544330597,0.017944348976016045,0.00018310559971723706,0.9998176097869873,-0.34375011920928955,0.19140632450580597,9.578128814697266
2520168,0.010192878544330597,0.017944348976016045,0.00018310559971723706,0.9998176097869873,-0.34375011920928955,0.19140632450580597,9.578128814697266
2523932,0.010192878544330597,0.017944348976016045,0.00018310559971723706,0.9998176097869873,-0.30468761920928955,0.23046883940696716,9.582035064697266
2528556,0.010192878544330597,0.017944348976016045,0.00024414079962298274,0.9998176097869873,-0.30468761920928955,0.23046883940696716,9.582035064697266
2532316,0.010192878544330597,0.017944348976016045,0.00024414079962298274,0.9998176097869873,-0.30468761920928955,0.19140632450580597,9.609378814697266
2536736,0.010192878544330597,0.017944348976016045,0.00024414079962298274,0.9998176097869873,-0.30468761920928955,0.23046883940696716,9.648441314697266
2541184,0.010192878544330597,0.017944348976016045,0.00024414079962298274,0.9998176097869873,-0.26953133940696716,0.19140632450580597,9.613285064697266
2545960,0.010192878544330597,0.017944348976016045,0.00024414079962298274,0.9998176097869873,-0.26953133940696716,0.19140632450580597,9.613285064697266
2549740,0.010192878544330597,0.017944348976016045,0.00024414079962298274,0.9998176097869873,-0.26953133940696716,0.19140632450580597,9.613285064697266
2554164,0.010192878544330597,0.017944348976016045,0.00024414079962298274,0.9998176097869873,-0.26953133940696716,0.19140632450580597,9.613285064697266
2557964,0.010192878544330597,0.017944348976016045,0.00024414079962298274,0.9998176097869873,-0.26953133940696716,0.19140632450580597,9.613285064697266
2562456,0.010192878544330597,0.017944348976016045,0.00024414079962298274,0.9998176097869873,-0.26953133940696716,0.19140632450580597,9.613285064697266
2567212,0.010192878544330597,0.017944348976016045,0.00024414079962298274,0.9998176097869873,-0.34375011920928955,0.19140632450580597,9.652347564697266
2571984,0.010192878544330597,0.017944348976016045,0.00024414079962298274,0.9998176097869873,-0.34375011920928955,0.19140632450580597,9.652347564697266
2576416,0.010192878544330597,0.017944348976016045,0.00024414079962298274,0.9998176097869873,-0.34375011920928955,0.19140632450580597,9.652347564697266
2580860,0.010192878544330597,0.017944348976016045,0.00024414079962298274,0.9998176097869873,-0.30468761920928955,0.23046883940696716,9.648441314697266
2585420,0.010192878544330597,0.017944348976016045,0.00024414079962298274,0.9998176097869873,-0.30468761920928955,0.23046883940696716,9.648441314697266
2589876,0.010192878544330597,0.017944348976016045,0.00024414079962298274,0.9998176097869873,-0.34375011920928955,0.26953133940696716,9.609378814697266
2594208,0.010192878544330597,0.017944348976016045,0.00024414079962298274,0.9998176097869873,-0.30468761920928955,0.11328128725290298,9.652347564697266
2598640,0.010253913700580597,0.017944348976016045,0.00024414079962298274,0.9998176097869873,-0.30468761920928955,0.11328128725290298,9.652347564697266
2602428,0.010253913700580597,0.017944348976016045,0.00024414079962298274,0.9998176097869873,-0.30468761920928955,0.11328128725290298,9.652347564697266
2606496,0.010253913700580597,0.017944348976016045,0.00024414079962298274,0.9998176097869873,-0.30468761920928955,0.11328128725290298,9.652347564697266
2611280,0.010253913700580597,0.017944348976016045,0.00024414079962298274,0.9998176097869873,-0.34375011920928955,0.26953133940696716,9.648441314697266
2615700,0.010253913700580597,0.017944348976016045,0.00024414079962298274,0.9997565746307373,-0.34375011920928955,0.26953133940696716,9.648441314697266
2619116,0.010253913700580597,0.017944348976016045,0.00024414079962298274,0.9997565746307373,-0.34375011920928955,0.26953133940696716,9.648441314697266
2623532,0.010253913700580597,0.017944348976016045,0.00024414079962298274,0.9997565746307373,-0.34375011920928955,0.15234380960464478,9.648441314697266
2628908,0.010253913700580597,0.017944348976016045,0.00018310559971723706,0.9997565746307373,-0.34375011920928955,0.15234380960464478,9.648441314697266
2633352,0.010253913700580597,0.018005384132266045,0.00024414079962298274,0.9997565746307373,-0.34375011920928955,0.15234380960464478,9.648441314697266
2637764,0.010253913700580597,0.018005384132266045,0.00018310559971723706,0.9997565746307373,-0.34375011920928955,0.15234380960464478,9.648441314697266
2641540,0.010253913700580597,0.018005384132266045,0.00018310559971723706,0.9997565746307373,-0.34375011920928955,0.15234380960464478,9.648441314697266
2645980,0.010253913700580597,0.017944348976016045,0.00018310559971723706,0.9997565746307373,-0.34375011920928955,0.15234380960464478,9.648441314697266
2650384,0.010253913700580597,0.017944348976016045,0.00018310559971723706,0.9997565746307373,-0.34375011920928955,0.15234380960464478,9.648441314697266
2654812,0.010253913700580597,0.017944348976016045,0.00018310559971723706,0.9998176097869873,-0.34375011920928955,0.15234380960464478,9.648441314697266
2659000,0.010253913700580597,0.017944348976016045,0.00018310559971723706,0.9998176097869873,-0.34375011920928955,0.15234380960464478,9.648441314697266
2663720,0.010253913700580597,0.017944348976016045,0.00018310559971723706,0.9998176097869873,-0.34375011920928955,0.23046883940696716,9.613285064697266
2668136,0.010253913700580597,0.017944348976016045,0.00018310559971723706,0.9997565746307373,-0.34375011920928955,0.23046883940696716,9.613285064697266
2673516,0.010192878544330597,0.017944348976016045,0.00024414079962298274,0.9998176097869873,-0.34375011920928955,0.23046883940696716,9.613285064697266
2677300,0.010192878544330597,0.017944348976016045,0.00018310559971723706,0.9998176097869873,-0.34375011920928955,0.23046883940696716,9.613285064697266
2681364,0.010253913700580597,0.017944348976016045,0.00018310559971723706,0.9998176097869873,-0.34375011920928955,0.23046883940696716,9.613285064697266
2685144,0.010253913700580597,0.017944348976016045,0.00018310559971723706,0.9998176097869873,-0.34375011920928955,0.19140632450580597,9.613285064697266
2689568,0.010253913700580597,0.017944348976016045,0.00018310559971723706,0.9998176097869873,-0.30468761920928955,0.15234380960464478,9.687503814697266
2694076,0.010253913700580597,0.017944348976016045,0.00018310559971723706,0.9998176097869873,-0.26953133940696716,0.15234380960464478,9.648441314697266
2698572,0.010192878544330597,0.017944348976016045,0.00024414079962298274,0.9998176097869873,-0.26953133940696716,0.15234380960464478,9.648441314697266
2702400,0.010192878544330597,0.017944348976016045,0.00024414079962298274,0.9998176097869873,-0.34375011920928955,0.23046883940696716,9.613285064697266
2707168,0.010192878544330597,0.017944348976016045,0.00024414079962298274,0.9998176097869873,-0.34375011920928955,0.23046883940696716,9.613285064697266
2711588,0.010192878544330597,0.017944348976016045,0.00024414079962298274,0.9998176097869873,-0.34375011920928955,0.23046883940696716,9.613285064697266
2716016,0.010192878544330597,0.017883313819766045,0.00024414079962298274,0.9998176097869873,-0.34375011920928955,0.23046883940696716,9.613285064697266
2719800,0.010192878544330597,0.017883313819766045,0.00024414079962298274,0.9998176097869873,-0.30468761920928955,0.19140632450580597,9.609378814697266
2723876,0.010192878544330597,0.017883313819766045,0.00024414079962298274,0.9998176097869873,-0.30468761920928955,0.19140632450580597,9.609378814697266
2729300,0.010192878544330597,0.017883313819766045,0.00024414079962298274,0.9998176097869873,-0.34375011920928955,0.19140632450580597,9.652347564697266
2734088,0.010192878544330597,0.017883313819766045,0.00024414079962298274,0.9998176097869873,-0.30468761920928955,0.19140632450580597,9.648441314697266
2738636,0.010192878544330597,0.017883313819766045,0.00024414079962298274,0.9998176097869873,-0.34375011920928955,0.15234380960464478,9.730472564697266
2743104,0.010192878544330597,0.017883313819766045,0.00024414079962298274,0.9998176097869873,-0.34375011920928955,0.15234380960464478,9.730472564697266
2746864,0.010192878544330597,0.017883313819766045,0.00024414079962298274,0.9998176097869873,-0.34375011920928955,0.23046883940696716,9.613285064697266
2751648,0.010192878544330597,0.017883313819766045,0.00024414079962298274,0.9998176097869873,-0.34375011920928955,0.23046883940696716,9.613285064697266
2755412,0.010192878544330597,0.017883313819766045,0.00024414079962298274,0.9998176097869873,-0.34375011920928955,0.23046883940696716,9.613285064697266
2759472,0.010192878544330597,0.017883313819766045,0.00024414079962298274,0.9998176097869873,-0.34375011920928955,0.23046883940696716,9.613285064697266
2763868,0.010192878544330597,0.017883313819766045,0.00024414079962298274,0.9998176097869873,-0.42187514901161194,0.23046883940696716,9.609378814697266
2768272,0.010192878544330597,0.017883313819766045,0.00024414079962298274,0.9998176097869873,-0.34375011920928955,0.19140632450580597,9.613285064697266
2773112,0.010192878544330597,0.017883313819766045,0.00024414079962298274,0.9998176097869873,-0.34375011920928955,0.15234380960464478,9.648441314697266
2777528,0.010192878544330597,0.017883313819766045,0.00024414079962298274,0.9998176097869873,-0.34375011920928955,0.19140632450580597,9.578128814697266
2781308,0.010192878544330597,0.017883313819766045,0.00024414079962298274,0.9998176097869873,-0.34375011920928955,0.23046883940696716,9.613285064697266
2785732,0.010192878544330597,0.017822278663516045,0.00018310559971723706,0.9998176097869873,-0.34375011920928955,0.23046883940696716,9.613285064697266
2789508,0.010131843388080597,0.017822278663516045,0.00018310559971723706,0.9998176097869873,-0.34375011920928955,0.23046883940696716,9.613285064697266
2793932,0.010131843388080597,0.017822278663516045,0.00018310559971723706,0.9998176097869873,-0.34375011920928955,0.23046883940696716,9.613285064697266
2797984,0.010131843388080597,0.017822278663516045,0.00018310559971723706,0.9998176097869873,-0.34375011920928955,0.23046883940696716,9.613285064697266
2801856,0.010131843388080597,0.017822278663516045,0.00018310559971723706,0.9998176097869873,-0.30468761920928955,0.15234380960464478,9.652347564697266
2807252,0.010131843388080597,0.017822278663516045,0.00018310559971723706,0.9998176097869873,-0.30468761920928955,0.15234380960464478,9.652347564697266
2812132,0.010131843388080597,0.017761243507266045,0.00018310559971723706,0.9998176097869873,-0.30468761920928955,0.15234380960464478,9.652347564697266
2815900,0.010131843388080597,0.017761243507266045,0.00018310559971723706,0.9998176097869873,-0.34375011920928955,0.15234380960464478,9.648441314697266
2819940,0.010192878544330597,0.017761243507266045,0.00018310559971723706,0.9998176097869873,-0.34375011920928955,0.15234380960464478,9.648441314697266
2824304,0.010192878544330597,0.017761243507266045,0.00018310559971723706,0.9998176097869873,-0.34375011920928955,0.15234380960464478,9.648441314697266
2828756,0.010192878544330597,0.017761243507266045,0.00018310559971723706,0.9998176097869873,-0.34375011920928955,0.15234380960464478,9.648441314697266
2833176,0.010192878544330597,0.017761243507266045,0.00018310559971723706,0.9998176097869873,-0.34375011920928955,0.15234380960464478,9.648441314697266
2836584,0.010192878544330597,0.017761243507266045,0.00018310559971723706,0.9998176097869873,-0.34375011920928955,0.15234380960464478,9.648441314697266
2841572,0.010192878544330597,0.017761243507266045,0.00018310559971723706,0.9998176097869873,-0.34375011920928955,0.15234380960464478,9.648441314697266
2845336,0.010192878544330597,0.017761243507266045,0.00018310559971723706,0.9998176097869873,-0.34375011920928955,0.11328128725290298,9.648441314697266
2850128,0.010192878544330597,0.017700208351016045,0.00018310559971723706,0.9998176097869873,-0.34375011920928955,0.11328128725290298,9.648441314697266
2854092,0.010192878544330597,0.017700208351016045,0.00018310559971723706,0.9998176097869873,-0.34375011920928955,0.11328128725290298,9.648441314697266
2858136,0.010192878544330597,0.017700208351016045,0.00018310559971723706,0.9998176097869873,-0.34375011920928955,0.11328128725290298,9.648441314697266
2862536,0.010192878544330597,0.017700208351016045,0.00018310559971723706,0.9998176097869873,-0.34375011920928955,0.11328128725290298,9.648441314697266
2867008,0.010192878544330597,0.017700208351016045,0.00018310559971723706,0.9998176097869873,-0.34375011920928955,0.11328128725290298,9.648441314697266
2870780,0.010192878544330597,0.017700208351016045,0.00018310559971723706,0.9998176097869873,-0.34375011920928955,0.15234380960464478,9.582035064697266
2875192,0.010192878544330597,0.017700208351016045,0.00018310559971723706,0.9998176097869873,-0.34375011920928955,0.15234380960464478,9.582035064697266
2878616,0.010192878544330597,0.017700208351016045,0.00018310559971723706,0.9998176097869873,-0.34375011920928955,0.15234380960464478,9.582035064697266
2883084,0.010192878544330597,0.017700208351016045,0.00018310559971723706,0.9998176097869873,-0.26953133940696716,0.15234380960464478,9.648441314697266
2888432,0.010192878544330597,0.017700208351016045,0.00018310559971723706,0.9998176097869873,-0.26953133940696716,0.15234380960464478,9.648441314697266
2892844,0.010192878544330597,0.017700208351016045,0.00018310559971723706,0.9998176097869873,-0.26953133940696716,0.15234380960464478,9.648441314697266
2896256,0.010192878544330597,0.017700208351016045,0.00018310559971723706,0.9998176097869873,-0.26953133940696716,0.15234380960464478,9.648441314697266
2901068,0.010192878544330597,0.017700208351016045,0.00018310559971723706,0.9998176097869873,-0.34375011920928955,0.19140632450580597,9.613285064697266
2904868,0.010192878544330597,0.017639173194766045,0.00018310559971723706,0.9998176097869873,-0.34375011920928955,0.19140632450580597,9.613285064697266
2909276,0.010192878544330597,0.017639173194766045,0.00018310559971723706,0.9998176097869873,-0.34375011920928955,0.19140632450580597,9.613285064697266
2913624,0.010192878544330597,0.017639173194766045,0.00018310559971723706,0.9998176097869873,-0.30468761920928955,0.19140632450580597,9.609378814697266
2917688,0.010192878544330597,0.017700208351016045,0.00018310559971723706,0.9998176097869873,-0.30468761920928955,0.19140632450580597,9.609378814697266
2922496,0.010192878544330597,0.017700208351016045,0.00018310559971723706,0.9998176097869873,-0.30468761920928955,0.19140632450580597,9.609378814697266
2926916,0.010192878544330597,0.017700208351016045,0.00018310559971723706,0.9998176097869873,-0.30468761920928955,0.19140632450580597,9.609378814697266
2931332,0.010192878544330597,0.017700208351016045,0.00018310559971723706,0.9998176097869873,-0.30468761920928955,0.19140632450580597,9.609378814697266
2935396,0.010192878544330597,0.017700208351016045,0.00018310559971723706,0.9998176097869873,-0.30468761920928955,0.19140632450580597,9.609378814697266
2940216,0.010192878544330597,0.017700208351016045,0.00018310559971723706,0.9998176097869873,-0.30468761920928955,0.23046883940696716,9.609378814697266
2944648,0.010192878544330597,0.017639173194766045,0.00018310559971723706,0.9998176097869873,-0.30468761920928955,0.23046883940696716,9.609378814697266
2949092,0.010192878544330597,0.017639173194766045,0.00018310559971723706,0.9998176097869873,-0.30468761920928955,0.23046883940696716,9.609378814697266
2952928,0.010192878544330597,0.017639173194766045,0.00018310559971723706,0.9998176097869873,-0.30468761920928955,0.23046883940696716,9.609378814697266
2956352,0.010192878544330597,0.017639173194766045,0.00018310559971723706,0.9998176097869873,-0.30468761920928955,0.23046883940696716,9.609378814697266
2961080,0.010192878544330597,0.017639173194766045,0.00018310559971723706,0.9998176097869873,-0.30468761920928955,0.23046883940696716,9.609378814697266
2965536,0.010192878544330597,0.017639173194766045,0.00018310559971723706,0.9998176097869873,-0.30468761920928955,0.23046883940696716,9.609378814697266
2969316,0.010192878544330597,0.017639173194766045,0.00018310559971723706,0.9998176097869873,-0.38281264901161194,0.19140632450580597,9.652347564697266
2973088,0.010192878544330597,0.017639173194766045,0.00018310559971723706,0.9998176097869873,-0.38281264901161194,0.19140632450580597,9.652347564697266
2977140,0.010192878544330597,0.017639173194766045,0.00018310559971723706,0.9998176097869873,-0.38281264901161194,0.19140632450580597,9.652347564697266
2981552,0.010192878544330597,0.017639173194766045,0.00018310559971723706,0.9998176097869873,-0.38281264901161194,0.23046883940696716,9.539066314697266
2985976,0.010192878544330597,0.017639173194766045,0.00018310559971723706,0.9998176097869873,-0.38281264901161194,0.23046883940696716,9.539066314697266
2990528,0.010192878544330597,0.017639173194766045,0.00018310559971723706,0.9998176097869873,-0.38281264901161194,0.26953133940696716,9.648441314697266
2994312,0.010253913700580597,0.017578138038516045,0.00018310559971723706,0.9998176097869873,-0.38281264901161194,0.26953133940696716,9.648441314697266
2998724,0.010253913700580597,0.017639173194766045,0.00018310559971723706,0.9998176097869873,-0.38281264901161194,0.26953133940696716,9.648441314697266
3002788,0.010192878544330597,0.017639173194766045,0.00018310559971723706,0.9998176097869873,-0.38281264901161194,0.26953133940696716,9.648441314697266
3007172,0.010192878544330597,0.017639173194766045,0.00018310559971723706,0.9998176097869873,-0.34375011920928955,0.15234380960464478,9.648441314697266
3011612,0.010253913700580597,0.017639173194766045,0.00018310559971723706,0.9998176097869873,-0.34375011920928955,0.15234380960464478,9.648441314697266
3015676,0.010192878544330597,0.017639173194766045,0.00018310559971723706,0.9998176097869873,-0.34375011920928955,0.15234380960464478,9.648441314697266
3020212,0.010253913700580597,0.017639173194766045,0.00018310559971723706,0.9998176097869873,-0.34375011920928955,0.15234380960464478,9.648441314697266
3024032,0.010253913700580597,0.017578138038516045,0.00018310559971723706,0.9998176097869873,-0.34375011920928955,0.15234380960464478,9.648441314697266
3028080,0.010253913700580597,0.017578138038516045,0.00018310559971723706,0.9998176097869873,-0.34375011920928955,0.15234380960464478,9.648441314697266
3032008,0.010253913700580597,0.017578138038516045,0.00018310559971723706,0.9998176097869873,-0.34375011920928955,0.15234380960464478,9.582035064697266
3036352,0.010253913700580597,0.017578138038516045,0.00018310559971723706,0.9998176097869873,-0.38281264901161194,0.19140632450580597,9.613285064697266
3040756,0.010192878544330597,0.017578138038516045,0.00018310559971723706,0.9998176097869873,-0.38281264901161194,0.19140632450580597,9.613285064697266
3045556,0.010253913700580597,0.017578138038516045,0.00018310559971723706,0.9998176097869873,-0.38281264901161194,0.19140632450580597,9.613285064697266
3049972,0.010192878544330597,0.017578138038516045,0.00018310559971723706,0.9998176097869873,-0.38281264901161194,0.19140632450580597,9.613285064697266
3054064,0.010192878544330597,0.017639173194766045,0.00018310559971723706,0.9998176097869873,-0.38281264901161194,0.19140632450580597,9.613285064697266
3057840,0.010192878544330597,0.017639173194766045,0.00018310559971723706,0.9998176097869873,-0.30468761920928955,0.23046883940696716,9.582035064697266
3062252,0.010192878544330597,0.017639173194766045,0.00018310559971723706,0.9998176097869873,-0.34375011920928955,0.19140632450580597,9.613285064697266
3067108,0.010192878544330597,0.017639173194766045,0.00018310559971723706,0.9998176097869873,-0.30468761920928955,0.23046883940696716,9.648441314697266
3070876,0.010192878544330597,0.017639173194766045,0.00018310559971723706,0.9998176097869873,-0.30468761920928955,0.19140632450580597,9.609378814697266
3074280,0.010192878544330597,0.017639173194766045,0.00018310559971723706,0.9998176097869873,-0.30468761920928955,0.19140632450580597,9.609378814697266
3079144,0.010192878544330597,0.017639173194766045,0.00018310559971723706,0.9998176097869873,-0.30468761920928955,0.11328128725290298,9.578128814697266
3083868,0.010192878544330597,0.017639173194766045,0.00018310559971723706,0.9998176097869873,-0.34375011920928955,0.23046883940696716,9.652347564697266
3088316,0.010192878544330597,0.017639173194766045,0.00018310559971723706,0.9998176097869873,-0.34375011920928955,0.23046883940696716,9.652347564697266
3092708,0.010192878544330597,0.017639173194766045,0.00018310559971723706,0.9998176097869873,-0.34375011920928955,0.23046883940696716,9.652347564697266
3097128,0.010253913700580597,0.017639173194766045,0.00018310559971723706,0.9998176097869873,-0.34375011920928955,0.23046883940696716,9.652347564697266
3101072,0.010192878544330597,0.017639173194766045,0.00018310559971723706,0.9998176097869873,-0.34375011920928955,0.23046883940696716,9.652347564697266
3105148,0.010192878544330597,0.017639173194766045,0.00018310559971723706,0.9998176097869873,-0.34375011920928955,0.23046883940696716,9.652347564697266
3109940,0.010192878544330597,0.017639173194766045,0.00018310559971723706,0.9998176097869873,-0.34375011920928955,0.15234380960464478,9.648441314697266
3114360,0.010192878544330597,0.017639173194766045,0.00018310559971723706,0.9998176097869873,-0.38281264901161194,0.15234380960464478,9.609378814697266
3118132,0.010253913700580597,0.017578138038516045,0.00018310559971723706,0.9998176097869873,-0.38281264901161194,0.15234380960464478,9.609378814697266
3122548,0.010192878544330597,0.017578138038516045,0.00018310559971723706,0.9998176097869873,-0.38281264901161194,0.15234380960464478,9.609378814697266
3126972,0.010253913700580597,0.017578138038516045,0.00018310559971723706,0.9998176097869873,-0.38281264901161194,0.15234380960464478,9.609378814697266
3130716,0.010253913700580597,0.017578138038516045,0.00018310559971723706,0.9998176097869873,-0.38281264901161194,0.15234380960464478,9.609378814697266
3135072,0.010253913700580597,0.017578138038516045,0.00018310559971723706,0.9998176097869873,-0.34375011920928955,0.23046883940696716,9.539066314697266
3139476,0.010253913700580597,0.017578138038516045,0.00018310559971723706,0.9998176097869873,-0.34375011920928955,0.19140632450580597,9.652347564697266
3143880,0.010253913700580597,0.017578138038516045,0.00018310559971723706,0.9998176097869873,-0.30468761920928955,0.15234380960464478,9.652347564697266
3147676,0.010253913700580597,0.017578138038516045,0.00018310559971723706,0.9998176097869873,-0.26953133940696716,0.19140632450580597,9.613285064697266
3152088,0.010253913700580597,0.017578138038516045,0.00018310559971723706,0.9998176097869873,-0.26953133940696716,0.19140632450580597,9.613285064697266
3155488,0.010253913700580597,0.017578138038516045,0.00018310559971723706,0.9998176097869873,-0.26953133940696716,0.19140632450580597,9.613285064697266
3159832,0.010253913700580597,0.017578138038516045,0.00018310559971723706,0.9998176097869873,-0.30468761920928955,0.15234380960464478,9.613285064697266
3164248,0.010253913700580597,0.017578138038516045,0.00018310559971723706,0.9998176097869873,-0.30468761920928955,0.15234380960464478,9.613285064697266
3169028,0.010253913700580597,0.017517102882266045,0.00018310559971723706,0.9998176097869873,-0.30468761920928955,0.15234380960464478,9.613285064697266
3172444,0.010253913700580597,0.017517102882266045,0.00018310559971723706,0.9998176097869873,-0.30468761920928955,0.15234380960464478,9.613285064697266
3177220,0.010253913700580597,0.017517102882266045,0.00018310559971723706,0.9998176097869873,-0.30468761920928955,0.15234380960464478,9.613285064697266
3181624,0.010253913700580597,0.017517102882266045,0.00018310559971723706,0.9998176097869873,-0.30468761920928955,0.15234380960464478,9.613285064697266
3186060,0.010314948856830597,0.017517102882266045,0.00018310559971723706,0.9998176097869873,-0.30468761920928955,0.15234380960464478,9.613285064697266
3190016,0.010314948856830597,0.017517102882266045,0.00018310559971723706,0.9998176097869873,-0.30468761920928955,0.15234380960464478,9.613285064697266
3194076,0.010314948856830597,0.017517102882266045,0.00018310559971723706,0.9998176097869873,-0.30468761920928955,0.15234380960464478,9.613285064697266
3198868,0.010314948856830597,0.017517102882266045,0.00018310559971723706,0.9998176097869873,-0.30468761920928955,0.15234380960464478,9.613285064697266
3203640,0.010314948856830597,0.017517102882266045,0.00018310559971723706,0.9998176097869873,-0.34375011920928955,0.15234380960464478,9.648441314697266
3207428,0.010314948856830597,0.017517102882266045,0.00018310559971723706,0.9998176097869873,-0.34375011920928955,0.15234380960464478,9.648441314697266
3211488,0.010314948856830597,0.017517102882266045,0.00018310559971723706,0.9998176097869873,-0.34375011920928955,0.15234380960464478,9.648441314697266
3215904,0.010314948856830597,0.017517102882266045,0.00018310559971723706,0.9998176097869873,-0.34375011920928955,0.15234380960464478,9.609378814697266
3219724,0.010314948856830597,0.017517102882266045,0.00018310559971723706,0.9998176097869873,-0.34375011920928955,0.19140632450580597,9.613285064697266
3225172,0.010314948856830597,0.017517102882266045,0.00018310559971723706,0.9998176097869873,-0.34375011920928955,0.19140632450580597,9.613285064697266
3228940,0.010314948856830597,0.017517102882266045,0.00018310559971723706,0.9998176097869873,-0.34375011920928955,0.15234380960464478,9.609378814697266
3232348,0.010314948856830597,0.017517102882266045,0.00018310559971723706,0.9998176097869873,-0.34375011920928955,0.15234380960464478,9.609378814697266
3236140,0.010314948856830597,0.017517102882266045,0.00018310559971723706,0.9998176097869873,-0.26953133940696716,0.23046883940696716,9.613285064697266
3240560,0.010314948856830597,0.017517102882266045,0.00018310559971723706,0.9998176097869873,-0.34375011920928955,0.19140632450580597,9.652347564697266
3245088,0.010314948856830597,0.017517102882266045,0.00018310559971723706,0.9998176097869873,-0.34375011920928955,0.19140632450580597,9.652347564697266
3249904,0.010314948856830597,0.017517102882266045,0.00018310559971723706,0.9998176097869873,-0.38281264901161194,0.23046883940696716,9.578128814697266
3253680,0.010314948856830597,0.017517102882266045,0.00018310559971723706,0.9998176097869873,-0.30468761920928955,0.23046883940696716,9.609378814697266
3257740,0.010314948856830597,0.017517102882266045,0.00018310559971723706,0.9998176097869873,-0.30468761920928955,0.23046883940696716,9.609378814697266
3262288,0.010314948856830597,0.017517102882266045,0.00018310559971723706,0.9998176097869873,-0.34375011920928955,0.19140632450580597,9.652347564697266
3267072,0.010314948856830597,0.017517102882266045,0.00018310559971723706,0.9998176097869873,-0.30468761920928955,0.15234380960464478,9.613285064697266
3270852,0.010314948856830597,0.017517102882266045,0.00018310559971723706,0.9998176097869873,-0.30468761920928955,0.15234380960464478,9.613285064697266
3274920,0.010314948856830597,0.017517102882266045,0.00018310559971723706,0.9998176097869873,-0.30468761920928955,0.15234380960464478,9.613285064697266
3280272,0.010314948856830597,0.017517102882266045,0.00018310559971723706,0.9998176097869873,-0.34375011920928955,0.23046883940696716,9.613285064697266
3284688,0.010314948856830597,0.017517102882266045,0.00018310559971723706,0.9998176097869873,-0.34375011920928955,0.15234380960464478,9.582035064697266
3289152,0.010314948856830597,0.017517102882266045,0.00018310559971723706,0.9998176097869873,-0.34375011920928955,0.15234380960464478,9.582035064697266
3292576,0.010314948856830597,0.017517102882266045,0.00018310559971723706,0.9998176097869873,-0.34375011920928955,0.15234380960464478,9.582035064697266
3297356,0.010314948856830597,0.017517102882266045,0.00018310559971723706,0.9998176097869873,-0.34375011920928955,0.15234380960464478,9.648441314697266
3301828,0.010314948856830597,0.017517102882266045,0.00018310559971723706,0.9998176097869873,-0.30468761920928955,0.19140632450580597,9.609378814697266
3306544,0.010314948856830597,0.017517102882266045,0.00018310559971723706,0.9998176097869873,-0.30468761920928955,0.15234380960464478,9.578128814697266
3311428,0.010314948856830597,0.017517102882266045,0.00018310559971723706,0.9998176097869873,-0.30468761920928955,0.15234380960464478,9.578128814697266
3315196,0.010375984013080597,0.017517102882266045,0.00018310559971723706,0.9998176097869873,-0.30468761920928955,0.15234380960464478,9.578128814697266
3319276,0.010375984013080597,0.017517102882266045,0.00018310559971723706,0.9998176097869873,-0.30468761920928955,0.15234380960464478,9.578128814697266
3324700,0.010375984013080597,0.017517102882266045,0.00018310559971723706,0.9998176097869873,-0.34375011920928955,0.19140632450580597,9.652347564697266
3329476,0.010375984013080597,0.017517102882266045,0.00018310559971723706,0.9998176097869873,-0.38281264901161194,0.23046883940696716,9.578128814697266
3332952,0.010314948856830597,0.017517102882266045,0.00018310559971723706,0.9998176097869873,-0.38281264901161194,0.23046883940696716,9.578128814697266
3337364,0.010314948856830597,0.017517102882266045,0.00018310559971723706,0.9998176097869873,-0.30468761920928955,0.19140632450580597,9.609378814697266
3341820,0.010314948856830597,0.017517102882266045,0.00018310559971723706,0.9998176097869873,-0.30468761920928955,0.19140632450580597,9.609378814697266
3346308,0.010314948856830597,0.017517102882266045,0.00018310559971723706,0.9998176097869873,-0.30468761920928955,0.19140632450580597,9.582035064697266
3350100,0.010314948856830597,0.017517102882266045,0.00018310559971723706,0.9998176097869873,-0.30468761920928955,0.23046883940696716,9.609378814697266
3354156,0.010314948856830597,0.017517102882266045,0.00018310559971723706,0.9998176097869873,-0.30468761920928955,0.23046883940696716,9.609378814697266
3359008,0.010314948856830597,0.017517102882266045,0.00018310559971723706,0.9998176097869873,-0.34375011920928955,0.23046883940696716,9.613285064697266
3363444,0.010314948856830597,0.017517102882266045,0.00018310559971723706,0.9998176097869873,-0.34375011920928955,0.19140632450580597,9.613285064697266
3368152,0.010314948856830597,0.017517102882266045,0.00018310559971723706,0.9998176097869873,-0.30468761920928955,0.19140632450580597,9.648441314697266
3372220,0.010375984013080597,0.017517102882266045,0.00018310559971723706,0.9998176097869873,-0.30468761920928955,0.19140632450580597,9.648441314697266
3376644,0.010375984013080597,0.017517102882266045,0.00012207039981149137,0.9998176097869873,-0.30468761920928955,0.19140632450580597,9.648441314697266
3381072,0.010375984013080597,0.017517102882266045,0.00012207039981149137,0.9998176097869873,-0.34375011920928955,0.23046883940696716,9.539066314697266
3385836,0.010375984013080597,0.017517102882266045,0.00012207039981149137,0.9998176097869873,-0.30468761920928955,0.15234380960464478,9.539066314697266
3390280,0.010375984013080597,0.017517102882266045,0.00012207039981149137,0.9998176097869873,-0.30468761920928955,0.19140632450580597,9.648441314697266
3394036,0.010437019169330597,0.017517102882266045,0.00012207039981149137,0.9998176097869873,-0.30468761920928955,0.19140632450580597,9.648441314697266
3398448,0.010375984013080597,0.017456067726016045,0.00018310559971723706,0.9998176097869873,-0.30468761920928955,0.19140632450580597,9.648441314697266
3402872,0.010375984013080597,0.017456067726016045,0.00012207039981149137,0.9998176097869873,-0.30468761920928955,0.19140632450580597,9.648441314697266
3406652,0.010375984013080597,0.017456067726016045,0.00012207039981149137,0.9998176097869873,-0.30468761920928955,0.19140632450580597,9.648441314697266
3410692,0.010375984013080597,0.017456067726016045,0.00018310559971723706,0.9998176097869873,-0.30468761920928955,0.19140632450580597,9.648441314697266
3415128,0.010375984013080597,0.017456067726016045,0.00018310559971723706,0.9998176097869873,-0.34375011920928955,0.26953133940696716,9.609378814697266
3418912,0.010375984013080597,0.017456067726016045,0.00012207039981149137,0.9998176097869873,-0.34375011920928955,0.26953133940696716,9.609378814697266
3422672,0.010375984013080597,0.017456067726016045,0.00012207039981149137,0.9998176097869873,-0.34375011920928955,0.26953133940696716,9.609378814697266
3426732,0.010375984013080597,0.017456067726016045,0.00012207039981149137,0.9998176097869873,-0.34375011920928955,0.26953133940696716,9.609378814697266
3431160,0.010375984013080597,0.017456067726016045,0.00012207039981149137,0.9998176097869873,-0.30468761920928955,0.19140632450580597,9.582035064697266
3435584,0.010375984013080597,0.017456067726016045,0.00012207039981149137,0.9998176097869873,-0.30468761920928955,0.19140632450580597,9.582035064697266
3440088,0.010375984013080597,0.017456067726016045,0.00012207039981149137,0.9998176097869873,-0.30468761920928955,0.19140632450580597,9.609378814697266
3444524,0.010375984013080597,0.017456067726016045,0.00012207039981149137,0.9998176097869873,-0.30468761920928955,0.19140632450580597,9.609378814697266
3448568,0.010375984013080597,0.017456067726016045,0.00012207039981149137,0.9998176097869873,-0.30468761920928955,0.19140632450580597,9.609378814697266
3453032,0.010375984013080597,0.017456067726016045,0.00012207039981149137,0.9998176097869873,-0.30468761920928955,0.19140632450580597,9.609378814697266
3456832,0.010375984013080597,0.017456067726016045,0.00012207039981149137,0.9998176097869873,-0.30468761920928955,0.19140632450580597,9.609378814697266
3460892,0.010375984013080597,0.017456067726016045,0.00012207039981149137,0.9998176097869873,-0.30468761920928955,0.19140632450580597,9.609378814697266
3465680,0.010375984013080597,0.017456067726016045,0.00012207039981149137,0.9998176097869873,-0.34375011920928955,0.15234380960464478,9.609378814697266
3470104,0.010375984013080597,0.017456067726016045,0.00012207039981149137,0.9998176097869873,-0.26953133940696716,0.19140632450580597,9.652347564697266
3474868,0.010375984013080597,0.017456067726016045,0.00012207039981149137,0.9998176097869873,-0.26953133940696716,0.19140632450580597,9.652347564697266
3479416,0.010375984013080597,0.017456067726016045,0.00018310559971723706,0.9998176097869873,-0.26953133940696716,0.19140632450580597,9.652347564697266
3483196,0.010375984013080597,0.017456067726016045,0.00012207039981149137,0.9998176097869873,-0.26953133940696716,0.19140632450580597,9.652347564697266
3486604,0.010375984013080597,0.017395032569766045,0.00012207039981149137,0.9998176097869873,-0.26953133940696716,0.19140632450580597,9.652347564697266
3491372,0.010375984013080597,0.017395032569766045,0.00012207039981149137,0.9998176097869873,-0.26953133940696716,0.15234380960464478,9.609378814697266
3495152,0.010375984013080597,0.017395032569766045,0.00012207039981149137,0.9998176097869873,-0.30468761920928955,0.19140632450580597,9.582035064697266
3499936,0.010375984013080597,0.017395032569766045,0.00012207039981149137,0.9998176097869873,-0.30468761920928955,0.19140632450580597,9.582035064697266
3503888,0.010314948856830597,0.017395032569766045,0.00012207039981149137,0.9998176097869873,-0.30468761920928955,0.19140632450580597,9.582035064697266
3507960,0.010314948856830597,0.017395032569766045,0.00012207039981149137,0.9998176097869873,-0.30468761920928955,0.19140632450580597,9.582035064697266
3512384,0.010314948856830597,0.017395032569766045,0.00018310559971723706,0.9998176097869873,-0.30468761920928955,0.19140632450580597,9.582035064697266
3516800,0.010314948856830597,0.017395032569766045,0.00018310559971723706,0.9998176097869873,-0.34375011920928955,0.19140632450580597,9.652347564697266
3521232,0.010375984013080597,0.017395032569766045,0.00018310559971723706,0.9998176097869873,-0.34375011920928955,0.19140632450580597,9.652347564697266
3525064,0.010375984013080597,0.017395032569766045,0.00018310559971723706,0.9998176097869873,-0.34375011920928955,0.15234380960464478,9.648441314697266
3528484,0.010314948856830597,0.017395032569766045,0.00018310559971723706,0.9998176097869873,-0.34375011920928955,0.15234380960464478,9.648441314697266
3532944,0.010314948856830597,0.017395032569766045,0.00018310559971723706,0.9998176097869873,-0.38281264901161194,0.23046883940696716,9.578128814697266
3538284,0.010314948856830597,0.017333997413516045,0.00018310559971723706,0.9998176097869873,-0.38281264901161194,0.23046883940696716,9.578128814697266
3542776,0.010314948856830597,0.017333997413516045,0.00018310559971723706,0.9998176097869873,-0.38281264901161194,0.23046883940696716,9.578128814697266
3546540,0.010314948856830597,0.017333997413516045,0.00018310559971723706,0.9998176097869873,-0.38281264901161194,0.23046883940696716,9.578128814697266
3550628,0.010314948856830597,0.017333997413516045,0.00018310559971723706,0.9998176097869873,-0.38281264901161194,0.23046883940696716,9.578128814697266
3555028,0.010314948856830597,0.017333997413516045,0.00018310559971723706,0.9998176097869873,-0.34375011920928955,0.19140632450580597,9.578128814697266
3559480,0.010314948856830597,0.017333997413516045,0.00018310559971723706,0.9998176097869873,-0.34375011920928955,0.19140632450580597,9.578128814697266
3564256,0.010314948856830597,0.017333997413516045,0.00018310559971723706,0.9998176097869873,-0.34375011920928955,0.19140632450580597,9.578128814697266
3568352,0.010314948856830597,0.017333997413516045,0.00018310559971723706,0.9998176097869873,-0.34375011920928955,0.19140632450580597,9.578128814697266
3573060,0.010314948856830597,0.017333997413516045,0.00018310559971723706,0.9998176097869873,-0.34375011920928955,0.23046883940696716,9.578128814697266
3577500,0.010314948856830597,0.017333997413516045,0.00018310559971723706,0.9998176097869873,-0.34375011920928955,0.23046883940696716,9.578128814697266
3582860,0.010314948856830597,0.017333997413516045,0.00018310559971723706,0.9998176097869873,-0.34375011920928955,0.23046883940696716,9.578128814697266
3587284,0.010314948856830597,0.017333997413516045,0.00018310559971723706,0.9998176097869873,-0.34375011920928955,0.23046883940696716,9.578128814697266
3591696,0.010314948856830597,0.017333997413516045,0.00018310559971723706,0.9998176097869873,-0.34375011920928955,0.23046883940696716,9.578128814697266
3596116,0.010314948856830597,0.017333997413516045,0.00018310559971723706,0.9998176097869873,-0.34375011920928955,0.23046883940696716,9.578128814697266
3599892,0.010314948856830597,0.017333997413516045,0.00018310559971723706,0.9998176097869873,-0.34375011920928955,0.23046883940696716,9.578128814697266
3604308,0.010314948856830597,0.017333997413516045,0.00018310559971723706,0.9998176097869873,-0.34375011920928955,0.23046883940696716,9.578128814697266
3608396,0.010314948856830597,0.017333997413516045,0.00018310559971723706,0.9998176097869873,-0.34375011920928955,0.23046883940696716,9.578128814697266
3613236,0.010314948856830597,0.017333997413516045,0.00018310559971723706,0.9998176097869873,-0.34375011920928955,0.19140632450580597,9.578128814697266
3618064,0.010314948856830597,0.017333997413516045,0.00018310559971723706,0.9998176097869873,-0.34375011920928955,0.19140632450580597,9.578128814697266
3622480,0.010314948856830597,0.017333997413516045,0.00018310559971723706,0.9998176097869873,-0.30468761920928955,0.30468761920928955,9.609378814697266
3626824,0.010314948856830597,0.017333997413516045,0.00018310559971723706,0.9998176097869873,-0.34375011920928955,0.15234380960464478,9.691410064697266
3631240,0.010314948856830597,0.017333997413516045,0.00018310559971723706,0.9998176097869873,-0.34375011920928955,0.15234380960464478,9.691410064697266
3635040,0.010314948856830597,0.017333997413516045,0.00018310559971723706,0.9998176097869873,-0.34375011920928955,0.15234380960464478,9.691410064697266
3639452,0.010314948856830597,0.017333997413516045,0.00018310559971723706,0.9998176097869873,-0.34375011920928955,0.15234380960464478,9.691410064697266
3644220,0.010314948856830597,0.017333997413516045,0.00018310559971723706,0.9998176097869873,-0.34375011920928955,0.15234380960464478,9.691410064697266
3648268,0.010314948856830597,0.017333997413516045,0.00018310559971723706,0.9998176097869873,-0.34375011920928955,0.15234380960464478,9.691410064697266
3653068,0.010314948856830597,0.017333997413516045,0.00018310559971723706,0.9998176097869873,-0.34375011920928955,0.15234380960464478,9.691410064697266
3657944,0.010314948856830597,0.017333997413516045,0.00018310559971723706,0.9998176097869873,-0.34375011920928955,0.19140632450580597,9.578128814697266
3662520,0.010314948856830597,0.017395032569766045,0.00018310559971723706,0.9998176097869873,-0.34375011920928955,0.19140632450580597,9.578128814697266
3666920,0.010314948856830597,0.017395032569766045,0.00018310559971723706,0.9998176097869873,-0.30468761920928955,0.19140632450580597,9.609378814697266
3670680,0.010314948856830597,0.017395032569766045,0.00018310559971723706,0.9998176097869873,-0.30468761920928955,0.19140632450580597,9.609378814697266
3675104,0.010314948856830597,0.017395032569766045,0.00018310559971723706,0.9998176097869873,-0.30468761920928955,0.19140632450580597,9.609378814697266
3679560,0.010314948856830597,0.017395032569766045,0.00018310559971723706,0.9998176097869873,-0.30468761920928955,0.19140632450580597,9.609378814697266
3683348,0.010314948856830597,0.017395032569766045,0.00018310559971723706,0.9998176097869873,-0.34375011920928955,0.15234380960464478,9.609378814697266
3687764,0.010253913700580597,0.017395032569766045,0.00018310559971723706,0.9998176097869873,-0.34375011920928955,0.15234380960464478,9.609378814697266
3692360,0.010253913700580597,0.017395032569766045,0.00018310559971723706,0.9998176097869873,-0.34375011920928955,0.15234380960464478,9.609378814697266
3696784,0.010253913700580597,0.017395032569766045,0.00018310559971723706,0.9998176097869873,-0.34375011920928955,0.15234380960464478,9.609378814697266
3700556,0.010253913700580597,0.017395032569766045,0.00018310559971723706,0.9998176097869873,-0.30468761920928955,0.15234380960464478,9.578128814697266
3704956,0.010253913700580597,0.017395032569766045,0.00018310559971723706,0.9998176097869873,-0.30468761920928955,0.15234380960464478,9.578128814697266
3709528,0.010253913700580597,0.017395032569766045,0.00018310559971723706,0.9998176097869873,-0.34375011920928955,0.15234380960464478,9.609378814697266
3714380,0.010253913700580597,0.017395032569766045,0.00018310559971723706,0.9998176097869873,-0.34375011920928955,0.15234380960464478,9.609378814697266
3719184,0.010253913700580597,0.017395032569766045,0.00018310559971723706,0.9998176097869873,-0.30468761920928955,0.23046883940696716,9.730472564697266
3723596,0.010253913700580597,0.017395032569766045,0.00018310559971723706,0.9998176097869873,-0.30468761920928955,0.23046883940696716,9.730472564697266
3727396,0.010253913700580597,0.017395032569766045,0.00018310559971723706,0.9998176097869873,-0.30468761920928955,0.15234380960464478,9.613285064697266
3731440,0.010253913700580597,0.017395032569766045,0.00018310559971723706,0.9998176097869873,-0.30468761920928955,0.15234380960464478,9.613285064697266
3735216,0.010253913700580597,0.017395032569766045,0.00018310559971723706,0.9998176097869873,-0.38281264901161194,0.23046883940696716,9.578128814697266
3739628,0.010253913700580597,0.017395032569766045,0.00018310559971723706,0.9998176097869873,-0.38281264901161194,0.11328128725290298,9.648441314697266
3745100,0.010253913700580597,0.017395032569766045,0.00018310559971723706,0.9998176097869873,-0.34375011920928955,0.23046883940696716,9.613285064697266
3749520,0.010253913700580597,0.017395032569766045,0.00018310559971723706,0.9998176097869873,-0.34375011920928955,0.23046883940696716,9.613285064697266
3754016,0.010253913700580597,0.017395032569766045,0.00018310559971723706,0.9998176097869873,-0.26953133940696716,0.19140632450580597,9.652347564697266
3757428,0.010253913700580597,0.017395032569766045,0.00018310559971723706,0.9998176097869873,-0.26953133940696716,0.19140632450580597,9.652347564697266
3761192,0.010253913700580597,0.017395032569766045,0.00018310559971723706,0.9998176097869873,-0.30468761920928955,0.19140632450580597,9.582035064697266
3764604,0.010253913700580597,0.017395032569766045,0.00018310559971723706,0.9998176097869873,-0.30468761920928955,0.19140632450580597,9.582035064697266
3769012,0.010253913700580597,0.017395032569766045,0.00018310559971723706,0.9998176097869873,-0.30468761920928955,0.19140632450580597,9.582035064697266
3773888,0.010253913700580597,0.017395032569766045,0.00018310559971723706,0.9998176097869873,-0.38281264901161194,0.19140632450580597,9.687503814697266
3778660,0.010253913700580597,0.017395032569766045,0.00018310559971723706,0.9998176097869873,-0.34375011920928955,0.23046883940696716,9.687503814697266
3782716,0.010253913700580597,0.017395032569766045,0.00018310559971723706,0.9998176097869873,-0.34375011920928955,0.23046883940696716,9.687503814697266
3787116,0.010253913700580597,0.017395032569766045,0.00018310559971723706,0.9998176097869873,-0.30468761920928955,0.19140632450580597,9.609378814697266
3791540,0.010253913700580597,0.017395032569766045,0.00018310559971723706,0.9998176097869873,-0.30468761920928955,0.11328128725290298,9.652347564697266
3796308,0.010253913700580597,0.017395032569766045,0.00018310559971723706,0.9998176097869873,-0.34375011920928955,0.23046883940696716,9.500003814697266
3800888,0.010253913700580597,0.017395032569766045,0.00018310559971723706,0.9998176097869873,-0.30468761920928955,0.23046883940696716,9.609378814697266
3804696,0.010253913700580597,0.017395032569766045,0.00018310559971723706,0.9998176097869873,-0.34375011920928955,0.23046883940696716,9.687503814697266
3808760,0.010253913700580597,0.017395032569766045,0.00018310559971723706,0.9998176097869873,-0.34375011920928955,0.23046883940696716,9.687503814697266
3813532,0.010253913700580597,0.017395032569766045,0.00018310559971723706,0.9998176097869873,-0.38281264901161194,0.15234380960464478,9.609378814697266
3818388,0.010253913700580597,0.017395032569766045,0.00018310559971723706,0.9998176097869873,-0.38281264901161194,0.15234380960464478,9.609378814697266
3822172,0.010253913700580597,0.017395032569766045,0.00018310559971723706,0.9998176097869873,-0.38281264901161194,0.15234380960464478,9.609378814697266
3826244,0.010253913700580597,0.017395032569766045,0.00018310559971723706,0.9998176097869873,-0.38281264901161194,0.15234380960464478,9.609378814697266
3830664,0.010253913700580597,0.017395032569766045,0.00018310559971723706,0.9998176097869873,-0.38281264901161194,0.15234380960464478,9.609378814697266
3834948,0.010253913700580597,0.017395032569766045,0.00018310559971723706,0.9998176097869873,-0.34375011920928955,0.15234380960464478,9.609378814697266
3840296,0.010253913700580597,0.017395032569766045,0.00018310559971723706,0.9998176097869873,-0.34375011920928955,0.15234380960464478,9.609378814697266
3844076,0.010253913700580597,0.017395032569766045,0.00018310559971723706,0.9998176097869873,-0.34375011920928955,0.15234380960464478,9.609378814697266
3848148,0.010253913700580597,0.017395032569766045,0.00018310559971723706,0.9998176097869873,-0.34375011920928955,0.15234380960464478,9.609378814697266
3852916,0.010253913700580597,0.017395032569766045,0.00018310559971723706,0.9998176097869873,-0.30468761920928955,0.15234380960464478,9.613285064697266
3857452,0.010253913700580597,0.017395032569766045,0.00018310559971723706,0.9998176097869873,-0.30468761920928955,0.15234380960464478,9.613285064697266
3861808,0.010253913700580597,0.017395032569766045,0.00018310559971723706,0.9998176097869873,-0.30468761920928955,0.15234380960464478,9.652347564697266
3865856,0.010253913700580597,0.017395032569766045,0.00018310559971723706,0.9998176097869873,-0.30468761920928955,0.15234380960464478,9.652347564697266
3869620,0.010253913700580597,0.017395032569766045,0.00018310559971723706,0.9998176097869873,-0.34375011920928955,0.23046883940696716,9.613285064697266
3874456,0.010253913700580597,0.017395032569766045,0.00018310559971723706,0.9998176097869873,-0.30468761920928955,0.23046883940696716,9.609378814697266
3878240,0.010253913700580597,0.017395032569766045,0.00018310559971723706,0.9998176097869873,-0.38281264901161194,0.19140632450580597,9.613285064697266
3882664,0.010253913700580597,0.017395032569766045,0.00018310559971723706,0.9998176097869873,-0.34375011920928955,0.23046883940696716,9.578128814697266
3886452,0.010253913700580597,0.017395032569766045,0.00018310559971723706,0.9998176097869873,-0.34375011920928955,0.26953133940696716,9.648441314697266
3890864,0.010253913700580597,0.017395032569766045,0.00018310559971723706,0.9998176097869873,-0.30468761920928955,0.19140632450580597,9.582035064697266
3895636,0.010253913700580597,0.017395032569766045,0.00018310559971723706,0.9998176097869873,-0.34375011920928955,0.23046883940696716,9.652347564697266
3900424,0.010253913700580597,0.017395032569766045,0.00018310559971723706,0.9998176097869873,-0.34375011920928955,0.11328128725290298,9.609378814697266
3904840,0.010253913700580597,0.017395032569766045,0.00018310559971723706,0.9998176097869873,-0.30468761920928955,0.15234380960464478,9.613285064697266
3909312,0.010192878544330597,0.017395032569766045,0.00012207039981149137,0.9998176097869873,-0.30468761920928955,0.15234380960464478,9.613285064697266
3913084,0.010192878544330597,0.017395032569766045,0.00012207039981149137,0.9998176097869873,-0.34375011920928955,0.23046883940696716,9.613285064697266
3917520,0.010192878544330597,0.017395032569766045,0.00012207039981149137,0.9998176097869873,-0.30468761920928955,0.11328128725290298,9.578128814697266
3922380,0.010192878544330597,0.017395032569766045,0.00012207039981149137,0.9998176097869873,-0.38281264901161194,0.15234380960464478,9.648441314697266
3927264,0.010192878544330597,0.017395032569766045,0.00012207039981149137,0.9998176097869873,-0.38281264901161194,0.15234380960464478,9.648441314697266
3931916,0.010192878544330597,0.017395032569766045,0.00012207039981149137,0.9998176097869873,-0.38281264901161194,0.15234380960464478,9.648441314697266
3936336,0.010192878544330597,0.017395032569766045,0.00012207039981149137,0.9998176097869873,-0.38281264901161194,0.15234380960464478,9.648441314697266
3940116,0.010192878544330597,0.017395032569766045,0.00012207039981149137,0.9998176097869873,-0.30468761920928955,0.11328128725290298,9.613285064697266
3944440,0.010192878544330597,0.017395032569766045,0.00012207039981149137,0.9998176097869873,-0.34375011920928955,0.19140632450580597,9.613285064697266
3948868,0.010192878544330597,0.017395032569766045,0.00012207039981149137,0.9998176097869873,-0.34375011920928955,0.19140632450580597,9.613285064697266
3953288,0.010192878544330597,0.017395032569766045,0.00012207039981149137,0.9998176097869873,-0.34375011920928955,0.19140632450580597,9.613285064697266
3957068,0.010192878544330597,0.017395032569766045,0.00012207039981149137,0.9998176097869873,-0.34375011920928955,0.23046883940696716,9.687503814697266
3961492,0.010192878544330597,0.017395032569766045,0.00012207039981149137,0.9998176097869873,-0.38281264901161194,0.19140632450580597,9.578128814697266
3965904,0.010192878544330597,0.017395032569766045,0.00012207039981149137,0.9998176097869873,-0.38281264901161194,0.19140632450580597,9.578128814697266
3969676,0.010192878544330597,0.017395032569766045,0.00012207039981149137,0.9998176097869873,-0.34375011920928955,0.15234380960464478,9.582035064697266
3974100,0.010192878544330597,0.017395032569766045,0.00012207039981149137,0.9998176097869873,-0.34375011920928955,0.15234380960464478,9.582035064697266
3978880,0.010192878544330597,0.017395032569766045,0.00012207039981149137,0.9998176097869873,-0.34375011920928955,0.15234380960464478,9.648441314697266
3982696,0.010192878544330597,0.017395032569766045,0.00012207039981149137,0.9998176097869873,-0.34375011920928955,0.15234380960464478,9.648441314697266
3986780,0.010192878544330597,0.017395032569766045,0.00012207039981149137,0.9998176097869873,-0.34375011920928955,0.15234380960464478,9.648441314697266
3991200,0.010192878544330597,0.017395032569766045,0.00012207039981149137,0.9998176097869873,-0.38281264901161194,0.23046883940696716,9.578128814697266
3995144,0.010192878544330597,0.017395032569766045,0.00012207039981149137,0.9998176097869873,-0.30468761920928955,0.23046883940696716,9.609378814697266
3999932,0.010192878544330597,0.017395032569766045,0.00012207039981149137,0.9998176097869873,-0.30468761920928955,0.19140632450580597,9.609378814697266
4003332,0.010192878544330597,0.017395032569766045,0.00012207039981149137,0.9998176097869873,-0.30468761920928955,0.19140632450580597,9.609378814697266
4007424,0.010192878544330597,0.017395032569766045,0.00012207039981149137,0.9998176097869873,-0.30468761920928955,0.19140632450580597,9.609378814697266
4011192,0.010192878544330597,0.017395032569766045,0.00012207039981149137,0.9998176097869873,-0.34375011920928955,0.23046883940696716,9.613285064697266
4015596,0.010192878544330597,0.017395032569766045,0.00012207039981149137,0.9998176097869873,-0.38281264901161194,0.15234380960464478,9.648441314697266
4019380,0.010192878544330597,0.017395032569766045,0.00012207039981149137,0.9998176097869873,-0.30468761920928955,0.15234380960464478,9.613285064697266
4023796,0.010192878544330597,0.017395032569766045,0.00012207039981149137,0.9998176097869873,-0.30468761920928955,0.19140632450580597,9.609378814697266
4028648,0.010192878544330597,0.017395032569766045,0.00012207039981149137,0.9998176097869873,-0.30468761920928955,0.19140632450580597,9.609378814697266
4033140,0.010192878544330597,0.017395032569766045,0.00012207039981149137,0.9998176097869873,-0.38281264901161194,0.19140632450580597,9.613285064697266
4038496,0.010192878544330597,0.017395032569766045,0.00012207039981149137,0.9998176097869873,-0.30468761920928955,0.15234380960464478,9.652347564697266
4043020,0.010192878544330597,0.017395032569766045,0.00012207039981149137,0.9998176097869873,-0.30468761920928955,0.15234380960464478,9.687503814697266
4046820,0.010192878544330597,0.017395032569766045,0.00012207039981149137,0.9998176097869873,-0.30468761920928955,0.11328128725290298,9.613285064697266
4051236,0.010192878544330597,0.017395032569766045,0.00012207039981149137,0.9998176097869873,-0.30468761920928955,0.11328128725290298,9.613285064697266
4055020,0.010192878544330597,0.017395032569766045,0.00012207039981149137,0.9998176097869873,-0.30468761920928955,0.11328128725290298,9.613285064697266
4059152,0.010192878544330597,0.017395032569766045,0.00012207039981149137,0.9998176097869873,-0.30468761920928955,0.11328128725290298,9.613285064697266
4063540,0.010192878544330597,0.017395032569766045,0.00012207039981149137,0.9998176097869873,-0.42187514901161194,0.19140632450580597,9.609378814697266
4067952,0.010192878544330597,0.017395032569766045,0.00012207039981149137,0.9998176097869873,-0.38281264901161194,0.15234380960464478,9.609378814697266
4072760,0.010192878544330597,0.017395032569766045,0.00012207039981149137,0.9998176097869873,-0.38281264901161194,0.15234380960464478,9.609378814697266
4077252,0.010192878544330597,0.017395032569766045,0.00012207039981149137,0.9998176097869873,-0.34375011920928955,0.23046883940696716,9.652347564697266
4081024,0.010192878544330597,0.017395032569766045,0.00012207039981149137,0.9998176097869873,-0.38281264901161194,0.23046883940696716,9.652347564697266
4085076,0.010192878544330597,0.017395032569766045,0.00012207039981149137,0.9998176097869873,-0.38281264901161194,0.23046883940696716,9.652347564697266
4089520,0.010192878544330597,0.017395032569766045,0.00012207039981149137,0.9998176097869873,-0.30468761920928955,0.19140632450580597,9.609378814697266
4093968,0.010192878544330597,0.017395032569766045,0.00012207039981149137,0.9998176097869873,-0.30468761920928955,0.19140632450580597,9.609378814697266
4098720,0.010192878544330597,0.017395032569766045,0.00012207039981149137,0.9998176097869873,-0.30468761920928955,0.19140632450580597,9.609378814697266
4102776,0.010192878544330597,0.017395032569766045,0.00012207039981149137,0.9998176097869873,-0.30468761920928955,0.19140632450580597,9.609378814697266
4107308,0.010192878544330597,0.017395032569766045,0.00012207039981149137,0.9998176097869873,-0.30468761920928955,0.19140632450580597,9.609378814697266
4111756,0.010192878544330597,0.017395032569766045,0.00012207039981149137,0.9998176097869873,-0.34375011920928955,0.23046883940696716,9.613285064697266
4117092,0.010192878544330597,0.017395032569766045,0.00012207039981149137,0.9998176097869873,-0.34375011920928955,0.23046883940696716,9.613285064697266
4121156,0.010192878544330597,0.017395032569766045,0.00012207039981149137,0.9998176097869873,-0.34375011920928955,0.23046883940696716,9.613285064697266
4125568,0.010192878544330597,0.017395032569766045,0.00012207039981149137,0.9998176097869873,-0.34375011920928955,0.19140632450580597,9.652347564697266
4129992,0.010192878544330597,0.017395032569766045,0.00012207039981149137,0.9998176097869873,-0.34375011920928955,0.23046883940696716,9.578128814697266
4134792,0.010192878544330597,0.017395032569766045,0.00012207039981149137,0.9998176097869873,-0.38281264901161194,0.19140632450580597,9.652347564697266
4138732,0.010192878544330597,0.017395032569766045,0.00012207039981149137,0.9998176097869873,-0.34375011920928955,0.15234380960464478,9.691410064697266
4144072,0.010192878544330597,0.017395032569766045,6.103519990574569e-05,0.9998176097869873,-0.34375011920928955,0.15234380960464478,9.691410064697266
4148920,0.010192878544330597,0.017395032569766045,6.103519990574569e-05,0.9998176097869873,-0.34375011920928955,0.15234380960464478,9.691410064697266
4153624,0.010192878544330597,0.017395032569766045,6.103519990574569e-05,0.9998176097869873,-0.34375011920928955,0.15234380960464478,9.648441314697266
4158040,0.010192878544330597,0.017395032569766045,6.103519990574569e-05,0.9998176097869873,-0.34375011920928955,0.15234380960464478,9.648441314697266
4162444,0.010192878544330597,0.017395032569766045,6.103519990574569e-05,0.9998176097869873,-0.34375011920928955,0.15234380960464478,9.648441314697266
4166872,0.010192878544330597,0.017395032569766045,6.103519990574569e-05,0.9998176097869873,-0.34375011920928955,0.19140632450580597,9.613285064697266
4171644,0.010192878544330597,0.017395032569766045,6.103519990574569e-05,0.9998176097869873,-0.34375011920928955,0.19140632450580597,9.613285064697266
4176448,0.010192878544330597,0.017395032569766045,6.103519990574569e-05,0.9998176097869873,-0.34375011920928955,0.15234380960464478,9.648441314697266
4180872,0.010192878544330597,0.017395032569766045,6.103519990574569e-05,0.9998176097869873,-0.30468761920928955,0.23046883940696716,9.648441314697266
4185296,0.010192878544330597,0.017395032569766045,6.103519990574569e-05,0.9998176097869873,-0.30468761920928955,0.23046883940696716,9.648441314697266
4189056,0.010192878544330597,0.017395032569766045,6.103519990574569e-05,0.9998176097869873,-0.34375011920928955,0.19140632450580597,9.652347564697266
4193480,0.010192878544330597,0.017395032569766045,6.103519990574569e-05,0.9998176097869873,-0.34375011920928955,0.19140632450580597,9.652347564697266
4197836,0.010192878544330597,0.017395032569766045,6.103519990574569e-05,0.9998176097869873,-0.34375011920928955,0.15234380960464478,9.648441314697266
4201892,0.010192878544330597,0.017395032569766045,6.103519990574569e-05,0.9998176097869873,-0.34375011920928955,0.15234380960464478,9.648441314697266
4206448,0.010192878544330597,0.017395032569766045,6.103519990574569e-05,0.9998176097869873,-0.34375011920928955,0.15234380960464478,9.648441314697266
4211308,0.010192878544330597,0.017395032569766045,6.103519990574569e-05,0.9998176097869873,-0.34375011920928955,0.19140632450580597,9.613285064697266
4216088,0.010192878544330597,0.017395032569766045,6.103519990574569e-05,0.9998176097869873,-0.34375011920928955,0.19140632450580597,9.613285064697266
4220560,0.010192878544330597,0.017395032569766045,6.103519990574569e-05,0.9998176097869873,-0.38281264901161194,0.19140632450580597,9.613285064697266
4224328,0.010192878544330597,0.017395032569766045,6.103519990574569e-05,0.9998176097869873,-0.34375011920928955,0.19140632450580597,9.652347564697266
4228752,0.010192878544330597,0.017395032569766045,6.103519990574569e-05,0.9998176097869873,-0.34375011920928955,0.19140632450580597,9.652347564697266
4233300,0.010131843388080597,0.017395032569766045,6.103519990574569e-05,0.9998176097869873,-0.34375011920928955,0.19140632450580597,9.652347564697266
4237732,0.010131843388080597,0.017395032569766045,6.103519990574569e-05,0.9998176097869873,-0.30468761920928955,0.26953133940696716,9.539066314697266
4241504,0.010131843388080597,0.017395032569766045,6.103519990574569e-05,0.9998176097869873,-0.30468761920928955,0.26953133940696716,9.539066314697266
4245560,0.010131843388080597,0.017395032569766045,6.103519990574569e-05,0.9998176097869873,-0.30468761920928955,0.26953133940696716,9.539066314697266
4249336,0.010131843388080597,0.017395032569766045,6.103519990574569e-05,0.9998176097869873,-0.30468761920928955,0.15234380960464478,9.613285064697266
4253776,0.010131843388080597,0.017395032569766045,6.103519990574569e-05,0.9998176097869873,-0.30468761920928955,0.15234380960464478,9.613285064697266
4257600,0.010131843388080597,0.017395032569766045,6.103519990574569e-05,0.9998176097869873,-0.30468761920928955,0.15234380960464478,9.613285064697266
4261664,0.010131843388080597,0.017395032569766045,6.103519990574569e-05,0.9998176097869873,-0.30468761920928955,0.15234380960464478,9.613285064697266
4267036,0.010131843388080597,0.017395032569766045,6.103519990574569e-05,0.9998176097869873,-0.30468761920928955,0.15234380960464478,9.613285064697266
4271808,0.010131843388080597,0.017456067726016045,6.103519990574569e-05,0.9998176097869873,-0.30468761920928955,0.15234380960464478,9.613285064697266
4276268,0.010131843388080597,0.017456067726016045,6.103519990574569e-05,0.9998176097869873,-0.30468761920928955,0.15234380960464478,9.613285064697266
4280336,0.010131843388080597,0.017456067726016045,6.103519990574569e-05,0.9998176097869873,-0.30468761920928955,0.15234380960464478,9.613285064697266
4285156,0.010131843388080597,0.017456067726016045,6.103519990574569e-05,0.9998176097869873,-0.30468761920928955,0.15234380960464478,9.613285064697266
4289616,0.010131843388080597,0.017456067726016045,6.103519990574569e-05,0.9998176097869873,-0.30468761920928955,0.19140632450580597,9.609378814697266
4294956,0.010131843388080597,0.017456067726016045,6.103519990574569e-05,0.9998176097869873,-0.30468761920928955,0.19140632450580597,9.609378814697266
4298372,0.010070808231830597,0.017456067726016045,6.103519990574569e-05,0.9998176097869873,-0.30468761920928955,0.19140632450580597,9.609378814697266
4302788,0.010070808231830597,0.017456067726016045,6.103519990574569e-05,0.9998176097869873,-0.30468761920928955,0.23046883940696716,9.542972564697266
4307128,0.010070808231830597,0.017456067726016045,6.103519990574569e-05,0.9998176097869873,-0.38281264901161194,0.19140632450580597,9.613285064697266
4311560,0.010070808231830597,0.017456067726016045,6.103519990574569e-05,0.9998176097869873,-0.38281264901161194,0.19140632450580597,9.613285064697266
4316036,0.010070808231830597,0.017456067726016045,6.103519990574569e-05,0.9998176097869873,-0.38281264901161194,0.19140632450580597,9.613285064697266
4320108,0.010070808231830597,0.017456067726016045,6.103519990574569e-05,0.9998176097869873,-0.38281264901161194,0.19140632450580597,9.613285064697266
4324792,0.010070808231830597,0.017456067726016045,6.103519990574569e-05,0.9998176097869873,-0.30468761920928955,0.15234380960464478,9.578128814697266
4329612,0.010070808231830597,0.017456067726016045,6.103519990574569e-05,0.9998176097869873,-0.34375011920928955,0.19140632450580597,9.652347564697266
4333396,0.010070808231830597,0.017456067726016045,6.103519990574569e-05,0.9998176097869873,-0.30468761920928955,0.19140632450580597,9.648441314697266
4337812,0.010070808231830597,0.017456067726016045,6.103519990574569e-05,0.9998176097869873,-0.30468761920928955,0.19140632450580597,9.648441314697266
4342604,0.010070808231830597,0.017456067726016045,6.103519990574569e-05,0.9998176097869873,-0.30468761920928955,0.07812502980232239,9.613285064697266
4347016,0.010070808231830597,0.017456067726016045,6.103519990574569e-05,0.9998176097869873,-0.30468761920928955,0.07812502980232239,9.613285064697266
4351820,0.010070808231830597,0.017456067726016045,6.103519990574569e-05,0.9998176097869873,-0.38281264901161194,0.23046883940696716,9.613285064697266
4355612,0.010070808231830597,0.017456067726016045,6.103519990574569e-05,0.9998176097869873,-0.38281264901161194,0.23046883940696716,9.613285064697266
4359684,0.010070808231830597,0.017456067726016045,6.103519990574569e-05,0.9998176097869873,-0.38281264901161194,0.23046883940696716,9.613285064697266
4364244,0.010070808231830597,0.017456067726016045,6.103519990574569e-05,0.9998176097869873,-0.30468761920928955,0.19140632450580597,9.691410064697266
4368004,0.010070808231830597,0.017456067726016045,6.103519990574569e-05,0.9998176097869873,-0.34375011920928955,0.15234380960464478,9.609378814697266
4372416,0.010070808231830597,0.017456067726016045,6.103519990574569e-05,0.9998176097869873,-0.30468761920928955,0.15234380960464478,9.613285064697266
4377792,0.010070808231830597,0.017456067726016045,6.103519990574569e-05,0.9998176097869873,-0.34375011920928955,0.15234380960464478,9.609378814697266
4382604,0.010009773075580597,0.017456067726016045,6.103519990574569e-05,0.9998176097869873,-0.34375011920928955,0.15234380960464478,9.609378814697266
4387020,0.010009773075580597,0.017456067726016045,6.103519990574569e-05,0.9998176097869873,-0.34375011920928955,0.15234380960464478,9.609378814697266
4391800,0.010009773075580597,0.017456067726016045,6.103519990574569e-05,0.9998176097869873,-0.34375011920928955,0.15234380960464478,9.609378814697266
4396404,0.010009773075580597,0.017456067726016045,6.103519990574569e-05,0.9998176097869873,-0.34375011920928955,0.15234380960464478,9.609378814697266
4400264,0.010009773075580597,0.017456067726016045,6.103519990574569e-05,0.9998176097869873,-0.34375011920928955,0.15234380960464478,9.609378814697266
4403664,0.010009773075580597,0.017456067726016045,6.103519990574569e-05,0.9998176097869873,-0.34375011920928955,0.15234380960464478,9.609378814697266
4408520,0.010009773075580597,0.017456067726016045,6.103519990574569e-05,0.9998176097869873,-0.38281264901161194,0.23046883940696716,9.613285064697266
4413292,0.010009773075580597,0.017456067726016045,6.103519990574569e-05,0.9998176097869873,-0.34375011920928955,0.19140632450580597,9.613285064697266
4417056,0.010009773075580597,0.017456067726016045,6.103519990574569e-05,0.9998176097869873,-0.34375011920928955,0.19140632450580597,9.613285064697266
4421100,0.010009773075580597,0.017456067726016045,6.103519990574569e-05,0.9998176097869873,-0.34375011920928955,0.19140632450580597,9.613285064697266
4425928,0.010009773075580597,0.017456067726016045,6.103519990574569e-05,0.9998176097869873,-0.38281264901161194,0.19140632450580597,9.539066314697266
4430736,0.010009773075580597,0.017456067726016045,6.103519990574569e-05,0.9998176097869873,-0.38281264901161194,0.23046883940696716,9.652347564697266
4435176,0.010009773075580597,0.017456067726016045,6.103519990574569e-05,0.9998176097869873,-0.38281264901161194,0.23046883940696716,9.652347564697266
4438516,0.010009773075580597,0.017456067726016045,6.103519990574569e-05,0.9998176097869873,-0.34375011920928955,0.15234380960464478,9.691410064697266
4442984,0.010009773075580597,0.017456067726016045,6.103519990574569e-05,0.9998176097869873,-0.34375011920928955,0.15234380960464478,9.691410064697266
4446760,0.009948737919330597,0.017456067726016045,6.103519990574569e-05,0.9998176097869873,-0.34375011920928955,0.15234380960464478,9.691410064697266
4451204,0.009948737919330597,0.017456067726016045,6.103519990574569e-05,0.9998176097869873,-0.34375011920928955,0.15234380960464478,9.691410064697266
4454980,0.009948737919330597,0.017456067726016045,6.103519990574569e-05,0.9998176097869873,-0.34375011920928955,0.15234380960464478,9.691410064697266
4459032,0.009948737919330597,0.017456067726016045,6.103519990574569e-05,0.9998176097869873,-0.34375011920928955,0.15234380960464478,9.691410064697266
4463844,0.009948737919330597,0.017456067726016045,6.103519990574569e-05,0.9998176097869873,-0.34375011920928955,0.15234380960464478,9.691410064697266
4468608,0.009948737919330597,0.017456067726016045,6.103519990574569e-05,0.9998176097869873,-0.38281264901161194,0.15234380960464478,9.609378814697266
4473416,0.009948737919330597,0.017456067726016045,6.103519990574569e-05,0.9998176097869873,-0.30468761920928955,0.19140632450580597,9.582035064697266
4477844,0.009948737919330597,0.017456067726016045,6.103519990574569e-05,0.9998176097869873,-0.30468761920928955,0.19140632450580597,9.648441314697266
4481604,0.009948737919330597,0.017456067726016045,6.103519990574569e-05,0.9998176097869873,-0.30468761920928955,0.19140632450580597,9.648441314697266
4486040,0.009948737919330597,0.017456067726016045,6.103519990574569e-05,0.9998176097869873,-0.30468761920928955,0.19140632450580597,9.648441314697266
4490828,0.009948737919330597,0.017456067726016045,6.103519990574569e-05,0.9998176097869873,-0.30468761920928955,0.19140632450580597,9.648441314697266
4494236,0.009948737919330597,0.017456067726016045,6.103519990574569e-05,0.9998176097869873,-0.30468761920928955,0.19140632450580597,9.648441314697266
4498012,0.009948737919330597,0.017456067726016045,6.103519990574569e-05,0.9998176097869873,-0.34375011920928955,0.15234380960464478,9.582035064697266
4502716,0.009948737919330597,0.017456067726016045,6.103519990574569e-05,0.9998176097869873,-0.34375011920928955,0.15234380960464478,9.582035064697266
4507168,0.009948737919330597,0.017456067726016045,6.103519990574569e-05,0.9998176097869873,-0.34375011920928955,0.15234380960464478,9.582035064697266
4510944,0.009948737919330597,0.017456067726016045,6.103519990574569e-05,0.9998176097869873,-0.34375011920928955,0.15234380960464478,9.648441314697266
4515360,0.009948737919330597,0.017456067726016045,6.103519990574569e-05,0.9998176097869873,-0.34375011920928955,0.15234380960464478,9.648441314697266
4519348,0.009948737919330597,0.017456067726016045,6.103519990574569e-05,0.9998176097869873,-0.34375011920928955,0.07812502980232239,9.609378814697266
4524784,0.009948737919330597,0.017456067726016045,6.103519990574569e-05,0.9998176097869873,-0.34375011920928955,0.07812502980232239,9.609378814697266
4528568,0.009948737919330597,0.017456067726016045,6.103519990574569e-05,0.9998176097869873,-0.30468761920928955,0.19140632450580597,9.648441314697266
4532988,0.009948737919330597,0.017456067726016045,6.103519990574569e-05,0.9998176097869873,-0.34375011920928955,0.15234380960464478,9.691410064697266
4537404,0.009948737919330597,0.017456067726016045,6.103519990574569e-05,0.9998176097869873,-0.34375011920928955,0.15234380960464478,9.691410064697266
4541808,0.009948737919330597,0.017456067726016045,6.103519990574569e-05,0.9998176097869873,-0.34375011920928955,0.15234380960464478,9.691410064697266
4545596,0.009948737919330597,0.017456067726016045,6.103519990574569e-05,0.9998176097869873,-0.34375011920928955,0.19140632450580597,9.578128814697266
4549996,0.009948737919330597,0.017456067726016045,6.103519990574569e-05,0.9998176097869873,-0.26953133940696716,0.19140632450580597,9.613285064697266
4554872,0.009948737919330597,0.017456067726016045,6.103519990574569e-05,0.9998176097869873,-0.34375011920928955,0.23046883940696716,9.613285064697266
4559748,0.009887702763080597,0.017456067726016045,6.103519990574569e-05,0.9998176097869873,-0.34375011920928955,0.23046883940696716,9.613285064697266
4564428,0.009887702763080597,0.017456067726016045,6.103519990574569e-05,0.9998176097869873,-0.34375011920928955,0.23046883940696716,9.613285064697266
4568904,0.009887702763080597,0.017456067726016045,6.103519990574569e-05,0.9998176097869873,-0.34375011920928955,0.23046883940696716,9.613285064697266
4573232,0.009887702763080597,0.017456067726016045,6.103519990574569e-05,0.9998176097869873,-0.30468761920928955,0.15234380960464478,9.613285064697266
4576648,0.009887702763080597,0.017456067726016045,6.103519990574569e-05,0.9998176097869873,-0.30468761920928955,0.15234380960464478,9.613285064697266
4580436,0.009887702763080597,0.017456067726016045,6.103519990574569e-05,0.9998176097869873,-0.30468761920928955,0.15234380960464478,9.613285064697266
4584852,0.009887702763080597,0.017456067726016045,6.103519990574569e-05,0.9998176097869873,-0.30468761920928955,0.15234380960464478,9.613285064697266
4589288,0.009887702763080597,0.017456067726016045,6.103519990574569e-05,0.9998176097869873,-0.30468761920928955,0.15234380960464478,9.613285064697266
4594076,0.009887702763080597,0.017456067726016045,6.103519990574569e-05,0.9998176097869873,-0.30468761920928955,0.15234380960464478,9.613285064697266
4597548,0.009887702763080597,0.017456067726016045,6.103519990574569e-05,0.9998176097869873,-0.30468761920928955,0.15234380960464478,9.613285064697266
4601960,0.009887702763080597,0.017456067726016045,6.103519990574569e-05,0.9998176097869873,-0.34375011920928955,0.11328128725290298,9.648441314697266
4606732,0.009887702763080597,0.017456067726016045,6.103519990574569e-05,0.9998176097869873,-0.30468761920928955,0.19140632450580597,9.582035064697266
4611268,0.009887702763080597,0.017456067726016045,6.103519990574569e-05,0.9998176097869873,-0.34375011920928955,0.23046883940696716,9.652347564697266
4615068,0.009887702763080597,0.017456067726016045,6.103519990574569e-05,0.9998176097869873,-0.34375011920928955,0.23046883940696716,9.539066314697266
4619484,0.009887702763080597,0.017456067726016045,6.103519990574569e-05,0.9998176097869873,-0.34375011920928955,0.23046883940696716,9.539066314697266
4624284,0.009887702763080597,0.017456067726016045,6.103519990574569e-05,0.9998176097869873,-0.34375011920928955,0.23046883940696716,9.539066314697266
4629040,0.009887702763080597,0.017456067726016045,6.103519990574569e-05,0.9998176097869873,-0.34375011920928955,0.23046883940696716,9.539066314697266
4632896,0.009887702763080597,0.017456067726016045,6.103519990574569e-05,0.9998176097869873,-0.34375011920928955,0.23046883940696716,9.539066314697266
4636976,0.009887702763080597,0.017456067726016045,6.103519990574569e-05,0.9998176097869873,-0.34375011920928955,0.23046883940696716,9.539066314697266
4641424,0.009887702763080597,0.017456067726016045,6.103519990574569e-05,0.9998176097869873,-0.38281264901161194,0.15234380960464478,9.648441314697266
4646236,0.009887702763080597,0.017456067726016045,6.103519990574569e-05,0.9998176097869873,-0.38281264901161194,0.15234380960464478,9.609378814697266
4650152,0.009887702763080597,0.017456067726016045,6.103519990574569e-05,0.9998176097869873,-0.38281264901161194,0.15234380960464478,9.609378814697266
4654568,0.009887702763080597,0.017456067726016045,6.103519990574569e-05,0.9998176097869873,-0.38281264901161194,0.15234380960464478,9.609378814697266
4658620,0.009887702763080597,0.017456067726016045,6.103519990574569e-05,0.9998176097869873,-0.38281264901161194,0.15234380960464478,9.609378814697266
4663184,0.009887702763080597,0.017456067726016045,6.103519990574569e-05,0.9998176097869873,-0.34375011920928955,0.26953133940696716,9.609378814697266
4668056,0.009887702763080597,0.017456067726016045,6.103519990574569e-05,0.9998176097869873,-0.34375011920928955,0.26953133940696716,9.609378814697266
4672436,0.009887702763080597,0.017456067726016045,6.103519990574569e-05,0.9998176097869873,-0.26953133940696716,0.15234380960464478,9.648441314697266
4676200,0.009887702763080597,0.017456067726016045,6.103519990574569e-05,0.9998176097869873,-0.26953133940696716,0.15234380960464478,9.648441314697266
4679632,0.009887702763080597,0.017456067726016045,6.103519990574569e-05,0.9998176097869873,-0.26953133940696716,0.15234380960464478,9.648441314697266
4684408,0.009887702763080597,0.017456067726016045,6.103519990574569e-05,0.9998176097869873,-0.26953133940696716,0.15234380960464478,9.648441314697266
4688832,0.009887702763080597,0.017456067726016045,6.103519990574569e-05,0.9998176097869873,-0.26953133940696716,0.15234380960464478,9.648441314697266
4693248,0.009887702763080597,0.017456067726016045,6.103519990574569e-05,0.9998176097869873,-0.34375011920928955,0.26953133940696716,9.582035064697266
4697896,0.009887702763080597,0.017456067726016045,6.103519990574569e-05,0.9998176097869873,-0.38281264901161194,0.23046883940696716,9.652347564697266
4702660,0.009887702763080597,0.017456067726016045,6.103519990574569e-05,0.9998176097869873,-0.34375011920928955,0.15234380960464478,9.582035064697266
4706452,0.009887702763080597,0.017456067726016045,6.103519990574569e-05,0.9998176097869873,-0.34375011920928955,0.26953133940696716,9.582035064697266
4710876,0.009887702763080597,0.017456067726016045,6.103519990574569e-05,0.9998176097869873,-0.30468761920928955,0.19140632450580597,9.609378814697266
4715300,0.009887702763080597,0.017456067726016045,6.103519990574569e-05,0.9998176097869873,-0.30468761920928955,0.23046883940696716,9.648441314697266
4719716,0.009826667606830597,0.017456067726016045,6.103519990574569e-05,0.9998176097869873,-0.30468761920928955,0.23046883940696716,9.648441314697266
4723488,0.009826667606830597,0.017456067726016045,6.103519990574569e-05,0.9998176097869873,-0.30468761920928955,0.15234380960464478,9.652347564697266
4727924,0.009826667606830597,0.017456067726016045,6.103519990574569e-05,0.9998176097869873,-0.34375011920928955,0.15234380960464478,9.648441314697266
4732760,0.009826667606830597,0.017456067726016045,6.103519990574569e-05,0.9998176097869873,-0.34375011920928955,0.19140632450580597,9.652347564697266
4737644,0.009826667606830597,0.017456067726016045,6.103519990574569e-05,0.9998176097869873,-0.34375011920928955,0.19140632450580597,9.652347564697266
4741640,0.009826667606830597,0.017456067726016045,6.103519990574569e-05,0.9998176097869873,-0.34375011920928955,0.19140632450580597,9.652347564697266
4745112,0.009826667606830597,0.017456067726016045,6.103519990574569e-05,0.9998176097869873,-0.34375011920928955,0.19140632450580597,9.652347564697266
4749664,0.009826667606830597,0.017456067726016045,6.103519990574569e-05,0.9998176097869873,-0.30468761920928955,0.19140632450580597,9.609378814697266
4754092,0.009826667606830597,0.017456067726016045,6.103519990574569e-05,0.9998176097869873,-0.34375011920928955,0.11328128725290298,9.648441314697266
4757852,0.009826667606830597,0.017456067726016045,6.103519990574569e-05,0.9998176097869873,-0.34375011920928955,0.11328128725290298,9.648441314697266
4762276,0.009826667606830597,0.017456067726016045,6.103519990574569e-05,0.9998176097869873,-0.34375011920928955,0.11328128725290298,9.648441314697266
4766904,0.009826667606830597,0.017456067726016045,6.103519990574569e-05,0.9998176097869873,-0.34375011920928955,0.11328128725290298,9.648441314697266
4771680,0.009826667606830597,0.017456067726016045,6.103519990574569e-05,0.9998176097869873,-0.30468761920928955,0.19140632450580597,9.609378814697266
4775444,0.009826667606830597,0.017456067726016045,6.103519990574569e-05,0.9998176097869873,-0.30468761920928955,0.19140632450580597,9.609378814697266
4779516,0.009826667606830597,0.017456067726016045,6.103519990574569e-05,0.9998176097869873,-0.30468761920928955,0.19140632450580597,9.609378814697266
4783876,0.009826667606830597,0.017456067726016045,6.103519990574569e-05,0.9998176097869873,-0.30468761920928955,0.15234380960464478,9.613285064697266
4787924,0.009826667606830597,0.017456067726016045,6.103519990574569e-05,0.9998176097869873,-0.30468761920928955,0.15234380960464478,9.613285064697266
4792356,0.009826667606830597,0.017456067726016045,6.103519990574569e-05,0.9998176097869873,-0.34375011920928955,0.19140632450580597,9.652347564697266
4796696,0.009826667606830597,0.017456067726016045,6.103519990574569e-05,0.9998176097869873,-0.30468761920928955,0.15234380960464478,9.613285064697266
4801596,0.009826667606830597,0.017456067726016045,6.103519990574569e-05,0.9998176097869873,-0.30468761920928955,0.15234380960464478,9.613285064697266
4806228,0.009826667606830597,0.017456067726016045,6.103519990574569e-05,0.9998176097869873,-0.30468761920928955,0.15234380960464478,9.613285064697266
4810568,0.009826667606830597,0.017456067726016045,6.103519990574569e-05,0.9998176097869873,-0.30468761920928955,0.15234380960464478,9.613285064697266
4814628,0.009826667606830597,0.017456067726016045,6.103519990574569e-05,0.9998176097869873,-0.30468761920928955,0.15234380960464478,9.613285064697266
4819052,0.009826667606830597,0.017456067726016045,6.103519990574569e-05,0.9998176097869873,-0.34375011920928955,0.15234380960464478,9.648441314697266
4823456,0.009826667606830597,0.017456067726016045,6.103519990574569e-05,0.9998176097869873,-0.34375011920928955,0.19140632450580597,9.613285064697266
4827896,0.009826667606830597,0.017456067726016045,6.103519990574569e-05,0.9998176097869873,-0.34375011920928955,0.19140632450580597,9.613285064697266
4831316,0.009826667606830597,0.017456067726016045,0.0,0.9998176097869873,-0.34375011920928955,0.19140632450580597,9.613285064697266
4835752,0.009826667606830597,0.017456067726016045,0.0,0.9998176097869873,-0.34375011920928955,0.19140632450580597,9.613285064697266
4839528,0.009826667606830597,0.017456067726016045,0.0,0.9998176097869873,-0.26953133940696716,0.19140632450580597,9.652347564697266
4843928,0.009826667606830597,0.017456067726016045,0.0,0.9998176097869873,-0.38281264901161194,0.19140632450580597,9.687503814697266
4849484,0.009826667606830597,0.017456067726016045,0.0,0.9998176097869873,-0.38281264901161194,0.19140632450580597,9.613285064697266
4853908,0.009826667606830597,0.017456067726016045,0.0,0.9998176097869873,-0.34375011920928955,0.15234380960464478,9.609378814697266
4858520,0.009826667606830597,0.017456067726016045,0.0,0.9998176097869873,-0.38281264901161194,0.26953133940696716,9.542972564697266
4862928,0.009826667606830597,0.017456067726016045,0.0,0.9998176097869873,-0.38281264901161194,0.26953133940696716,9.542972564697266
4866692,0.009826667606830597,0.017456067726016045,0.0,0.9998176097869873,-0.34375011920928955,0.15234380960464478,9.542972564697266
4871092,0.009826667606830597,0.017456067726016045,0.0,0.9998176097869873,-0.34375011920928955,0.19140632450580597,9.578128814697266
4875716,0.009826667606830597,0.017456067726016045,0.0,0.9998176097869873,-0.34375011920928955,0.19140632450580597,9.578128814697266
4880132,0.009826667606830597,0.017456067726016045,0.0,0.9998176097869873,-0.34375011920928955,0.19140632450580597,9.578128814697266
4883892,0.009826667606830597,0.017456067726016045,0.0,0.9998176097869873,-0.34375011920928955,0.23046883940696716,9.613285064697266
4888312,0.009826667606830597,0.017456067726016045,0.0,0.9998176097869873,-0.38281264901161194,0.11328128725290298,9.648441314697266
4892976,0.009826667606830597,0.017456067726016045,0.0,0.9998176097869873,-0.38281264901161194,0.11328128725290298,9.648441314697266
4897392,0.009826667606830597,0.017456067726016045,0.0,0.9998176097869873,-0.34375011920928955,0.23046883940696716,9.613285064697266
4901164,0.009826667606830597,0.017456067726016045,0.0,0.9998176097869873,-0.38281264901161194,0.15234380960464478,9.648441314697266
4905588,0.009826667606830597,0.017456067726016045,0.0,0.9998176097869873,-0.30468761920928955,0.19140632450580597,9.648441314697266
4910568,0.009826667606830597,0.017456067726016045,0.0,0.9998176097869873,-0.38281264901161194,0.19140632450580597,9.578128814697266
4915516,0.009826667606830597,0.017456067726016045,0.0,0.9998176097869873,-0.38281264901161194,0.19140632450580597,9.578128814697266
4920168,0.009826667606830597,0.017456067726016045,0.0,0.9998176097869873,-0.38281264901161194,0.19140632450580597,9.578128814697266
4924580,0.009826667606830597,0.017456067726016045,0.0,0.9998176097869873,-0.38281264901161194,0.19140632450580597,9.578128814697266
4928364,0.009826667606830597,0.017456067726016045,0.0,0.9998176097869873,-0.30468761920928955,0.23046883940696716,9.609378814697266
4932700,0.009826667606830597,0.017456067726016045,0.0,0.9998176097869873,-0.30468761920928955,0.23046883940696716,9.582035064697266
4937124,0.009765632450580597,0.017456067726016045,0.0,0.9998176097869873,-0.30468761920928955,0.23046883940696716,9.582035064697266
4941544,0.009765632450580597,0.017456067726016045,0.0,0.9998176097869873,-0.30468761920928955,0.23046883940696716,9.609378814697266
4945300,0.009765632450580597,0.017456067726016045,0.0,0.9998176097869873,-0.38281264901161194,0.23046883940696716,9.613285064697266
4949756,0.009765632450580597,0.017456067726016045,0.0,0.9998176097869873,-0.34375011920928955,0.19140632450580597,9.613285064697266
4954528,0.009765632450580597,0.017456067726016045,0.0,0.9998176097869873,-0.34375011920928955,0.19140632450580597,9.613285064697266
4958952,0.009765632450580597,0.017456067726016045,0.0,0.9998176097869873,-0.30468761920928955,0.26953133940696716,9.613285064697266
4963728,0.009765632450580597,0.017456067726016045,0.0,0.9998176097869873,-0.34375011920928955,0.23046883940696716,9.652347564697266
4968516,0.009765632450580597,0.017517102882266045,0.0,0.9998176097869873,-0.34375011920928955,0.23046883940696716,9.652347564697266
4971908,0.009765632450580597,0.017517102882266045,0.0,0.9998176097869873,-0.34375011920928955,0.23046883940696716,9.652347564697266
4976776,0.009765632450580597,0.017517102882266045,0.0,0.9998176097869873,-0.34375011920928955,0.19140632450580597,9.652347564697266
4981472,0.009765632450580597,0.017517102882266045,0.0,0.9998176097869873,-0.34375011920928955,0.15234380960464478,9.609378814697266
4986396,0.009765632450580597,0.017517102882266045,0.0,0.9998176097869873,-0.34375011920928955,0.15234380960464478,9.609378814697266
4989728,0.009765632450580597,0.017517102882266045,0.0,0.9998176097869873,-0.30468761920928955,0.19140632450580597,9.648441314697266
4993876,0.009765632450580597,0.017517102882266045,0.0,0.9998176097869873,-0.30468761920928955,0.19140632450580597,9.648441314697266
4997640,0.009765632450580597,0.017517102882266045,0.0,0.9998176097869873,-0.30468761920928955,0.19140632450580597,9.648441314697266
5002044,0.009765632450580597,0.017517102882266045,0.0,0.9998176097869873,-0.30468761920928955,0.19140632450580597,9.648441314697266
5006568,0.009765632450580597,0.017517102882266045,0.0,0.9998176097869873,-0.30468761920928955,0.19140632450580597,9.648441314697266
5010980,0.009765632450580597,0.017517102882266045,0.0,0.9998176097869873,-0.34375011920928955,0.23046883940696716,9.652347564697266
5014764,0.009765632450580597,0.017517102882266045,0.0,0.9998176097869873,-0.34375011920928955,0.23046883940696716,9.652347564697266
5019176,0.009765632450580597,0.017517102882266045,0.0,0.9998176097869873,-0.34375011920928955,0.23046883940696716,9.652347564697266
5023600,0.009765632450580597,0.017517102882266045,0.0,0.9998176097869873,-0.34375011920928955,0.23046883940696716,9.652347564697266
5027932,0.009765632450580597,0.017517102882266045,0.0,0.9998176097869873,-0.34375011920928955,0.19140632450580597,9.613285064697266
5032012,0.009765632450580597,0.017517102882266045,0.0,0.9998176097869873,-0.34375011920928955,0.19140632450580597,9.613285064697266
5036424,0.009765632450580597,0.017517102882266045,0.0,0.9998176097869873,-0.34375011920928955,0.15234380960464478,9.648441314697266
5040872,0.009765632450580597,0.017517102882266045,0.0,0.9998176097869873,-0.34375011920928955,0.15234380960464478,9.648441314697266
5044632,0.009765632450580597,0.017517102882266045,0.0,0.9998176097869873,-0.30468761920928955,0.23046883940696716,9.648441314697266
5049052,0.009765632450580597,0.017517102882266045,0.0,0.9998176097869873,-0.34375011920928955,0.23046883940696716,9.613285064697266
5053620,0.009765632450580597,0.017517102882266045,0.0,0.9998176097869873,-0.34375011920928955,0.23046883940696716,9.613285064697266
5058436,0.009765632450580597,0.017517102882266045,0.0,0.9998176097869873,-0.26953133940696716,0.11328128725290298,9.648441314697266
5062212,0.009765632450580597,0.017517102882266045,0.0,0.9998176097869873,-0.34375011920928955,0.15234380960464478,9.609378814697266
5066624,0.009765632450580597,0.017517102882266045,0.0,0.9998176097869873,-0.30468761920928955,0.23046883940696716,9.691410064697266
5071016,0.009765632450580597,0.017517102882266045,0.0,0.9998176097869873,-0.34375011920928955,0.15234380960464478,9.582035064697266
5075424,0.009765632450580597,0.017517102882266045,0.0,0.9998176097869873,-0.34375011920928955,0.15234380960464478,9.582035064697266
5079200,0.009765632450580597,0.017517102882266045,0.0,0.9998176097869873,-0.30468761920928955,0.26953133940696716,9.613285064697266
5083620,0.009765632450580597,0.017517102882266045,0.0,0.9998176097869873,-0.30468761920928955,0.11328128725290298,9.652347564697266
5088444,0.009765632450580597,0.017517102882266045,0.0,0.9998176097869873,-0.30468761920928955,0.11328128725290298,9.652347564697266
5093040,0.009765632450580597,0.017517102882266045,0.0,0.9998176097869873,-0.30468761920928955,0.11328128725290298,9.652347564697266
5096812,0.009765632450580597,0.017517102882266045,0.0,0.9998176097869873,-0.30468761920928955,0.11328128725290298,9.652347564697266
5101224,0.009765632450580597,0.017517102882266045,0.0,0.9998176097869873,-0.30468761920928955,0.11328128725290298,9.652347564697266
5105644,0.009765632450580597,0.017517102882266045,0.0,0.9998176097869873,-0.30468761920928955,0.11328128725290298,9.652347564697266
5110060,0.009765632450580597,0.017517102882266045,0.0,0.9998176097869873,-0.30468761920928955,0.23046883940696716,9.609378814697266
5113824,0.009765632450580597,0.017517102882266045,0.0,0.9998176097869873,-0.30468761920928955,0.23046883940696716,9.609378814697266
5118228,0.009765632450580597,0.017517102882266045,0.0,0.9998176097869873,-0.30468761920928955,0.23046883940696716,9.609378814697266
5122760,0.009765632450580597,0.017517102882266045,0.0,0.9998176097869873,-0.30468761920928955,0.23046883940696716,9.609378814697266
5127188,0.009765632450580597,0.017517102882266045,0.0,0.9998176097869873,-0.30468761920928955,0.19140632450580597,9.609378814697266
5131576,0.009765632450580597,0.017517102882266045,0.0,0.9998176097869873,-0.30468761920928955,0.19140632450580597,9.609378814697266
5135644,0.009765632450580597,0.017517102882266045,0.0,0.9998176097869873,-0.30468761920928955,0.19140632450580597,9.609378814697266
5140404,0.009765632450580597,0.017517102882266045,0.0,0.9998176097869873,-0.30468761920928955,0.11328128725290298,9.687503814697266
5144944,0.009765632450580597,0.017517102882266045,0.0,0.9998176097869873,-0.34375011920928955,0.19140632450580597,9.652347564697266
5149280,0.009765632450580597,0.017517102882266045,0.0,0.9998176097869873,-0.34375011920928955,0.23046883940696716,9.652347564697266
5153704,0.009765632450580597,0.017517102882266045,0.0,0.9998176097869873,-0.34375011920928955,0.23046883940696716,9.652347564697266
5158112,0.009765632450580597,0.017517102882266045,0.0,0.9998176097869873,-0.34375011920928955,0.23046883940696716,9.652347564697266
5162584,0.009765632450580597,0.017517102882266045,0.0,0.9998176097869873,-0.34375011920928955,0.23046883940696716,9.652347564697266
5166520,0.009765632450580597,0.017517102882266045,0.0,0.9998176097869873,-0.34375011920928955,0.23046883940696716,9.652347564697266
5170600,0.009765632450580597,0.017517102882266045,0.0,0.9998176097869873,-0.34375011920928955,0.23046883940696716,9.652347564697266
5175024,0.009765632450580597,0.017517102882266045,0.0,0.9998176097869873,-0.34375011920928955,0.19140632450580597,9.539066314697266
5179572,0.009765632450580597,0.017517102882266045,0.0,0.9998176097869873,-0.30468761920928955,0.19140632450580597,9.582035064697266
5184404,0.009765632450580597,0.017517102882266045,0.0,0.9998176097869873,-0.30468761920928955,0.19140632450580597,9.582035064697266
5187816,0.009765632450580597,0.017517102882266045,0.0,0.9998176097869873,-0.30468761920928955,0.19140632450580597,9.582035064697266
5192224,0.009765632450580597,0.017517102882266045,0.0,0.9998176097869873,-0.30468761920928955,0.19140632450580597,9.582035064697266
5196860,0.009765632450580597,0.017517102882266045,0.0,0.9998176097869873,-0.26953133940696716,0.15234380960464478,9.609378814697266
5201688,0.009765632450580597,0.017517102882266045,0.0,0.9998176097869873,-0.26953133940696716,0.15234380960464478,9.609378814697266
5206032,0.009765632450580597,0.017517102882266045,0.0,0.9998176097869873,-0.30468761920928955,0.15234380960464478,9.687503814697266
5209436,0.009765632450580597,0.017517102882266045,0.0,0.9998176097869873,-0.30468761920928955,0.15234380960464478,9.687503814697266
5214508,0.009765632450580597,0.017517102882266045,0.0,0.9998176097869873,-0.30468761920928955,0.15234380960464478,9.578128814697266
5219368,0.009765632450580597,0.017517102882266045,0.0,0.9998176097869873,-0.30468761920928955,0.23046883940696716,9.648441314697266
5224548,0.009765632450580597,0.017517102882266045,0.0,0.9998176097869873,-0.30468761920928955,0.23046883940696716,9.648441314697266
5228964,0.009765632450580597,0.017517102882266045,0.0,0.9998176097869873,-0.30468761920928955,0.23046883940696716,9.648441314697266
5233396,0.009765632450580597,0.017517102882266045,0.0,0.9998176097869873,-0.30468761920928955,0.23046883940696716,9.648441314697266
5237160,0.009765632450580597,0.017517102882266045,0.0,0.9998176097869873,-0.30468761920928955,0.23046883940696716,9.648441314697266
5241200,0.009765632450580597,0.017517102882266045,0.0,0.9998176097869873,-0.30468761920928955,0.23046883940696716,9.648441314697266
5245988,0.009765632450580597,0.017517102882266045,0.0,0.9998176097869873,-0.30468761920928955,0.15234380960464478,9.578128814697266
5249744,0.009765632450580597,0.017517102882266045,0.0,0.9998176097869873,-0.30468761920928955,0.19140632450580597,9.609378814697266
5254188,0.009765632450580597,0.017517102882266045,0.0,0.9998176097869873,-0.30468761920928955,0.19140632450580597,9.609378814697266
5258656,0.009765632450580597,0.017517102882266045,0.0,0.9998176097869873,-0.30468761920928955,0.19140632450580597,9.609378814697266
5263076,0.009765632450580597,0.017517102882266045,0.0,0.9998176097869873,-0.30468761920928955,0.19140632450580597,9.609378814697266
5266848,0.009765632450580597,0.017517102882266045,0.0,0.9998176097869873,-0.34375011920928955,0.23046883940696716,9.613285064697266
5270916,0.009765632450580597,0.017517102882266045,0.0,0.9998176097869873,-0.34375011920928955,0.23046883940696716,9.613285064697266
5276252,0.009765632450580597,0.017517102882266045,0.0,0.9998176097869873,-0.34375011920928955,0.23046883940696716,9.613285064697266
5280828,0.009765632450580597,0.017517102882266045,0.0,0.9998176097869873,-0.34375011920928955,0.19140632450580597,9.687503814697266
5284584,0.009765632450580597,0.017517102882266045,0.0,0.9998176097869873,-0.38281264901161194,0.11328128725290298,9.582035064697266
5288912,0.009765632450580597,0.017517102882266045,0.0,0.9998176097869873,-0.30468761920928955,0.19140632450580597,9.582035064697266
5293316,0.009765632450580597,0.017456067726016045,0.0,0.9998176097869873,-0.30468761920928955,0.19140632450580597,9.582035064697266
5297788,0.009765632450580597,0.017456067726016045,0.0,0.9998176097869873,-0.34375011920928955,0.19140632450580597,9.652347564697266
5302480,0.009765632450580597,0.017456067726016045,0.0,0.9998176097869873,-0.34375011920928955,0.23046883940696716,9.652347564697266
5306884,0.009765632450580597,0.017456067726016045,0.0,0.9998176097869873,-0.34375011920928955,0.23046883940696716,9.652347564697266
5310644,0.009765632450580597,0.017456067726016045,0.0,0.9998176097869873,-0.34375011920928955,0.23046883940696716,9.652347564697266
5315176,0.009765632450580597,0.017456067726016045,0.0,0.9998176097869873,-0.34375011920928955,0.23046883940696716,9.652347564697266
5319508,0.009765632450580597,0.017456067726016045,0.0,0.9998176097869873,-0.30468761920928955,0.19140632450580597,9.582035064697266
5323928,0.009765632450580597,0.017456067726016045,0.0,0.9998176097869873,-0.30468761920928955,0.19140632450580597,9.582035064697266
5327324,0.009765632450580597,0.017456067726016045,0.0,0.9998176097869873,-0.30468761920928955,0.19140632450580597,9.582035064697266
5332112,0.009765632450580597,0.017456067726016045,0.0,0.9998176097869873,-0.42187514901161194,0.19140632450580597,9.542972564697266
5336464,0.009765632450580597,0.017456067726016045,0.0,0.9998176097869873,-0.42187514901161194,0.19140632450580597,9.542972564697266
5341244,0.009765632450580597,0.017456067726016045,0.0,0.9998176097869873,-0.42187514901161194,0.19140632450580597,9.542972564697266
5344676,0.009765632450580597,0.017456067726016045,0.0,0.9998176097869873,-0.42187514901161194,0.19140632450580597,9.542972564697266
5349096,0.009765632450580597,0.017456067726016045,0.0,0.9998176097869873,-0.34375011920928955,0.23046883940696716,9.687503814697266
5353860,0.009765632450580597,0.017456067726016045,0.0,0.9998176097869873,-0.34375011920928955,0.26953133940696716,9.582035064697266
5358284,0.009765632450580597,0.017456067726016045,0.0,0.9998176097869873,-0.34375011920928955,0.26953133940696716,9.582035064697266
5362704,0.009765632450580597,0.017456067726016045,0.0,0.9998176097869873,-0.34375011920928955,0.26953133940696716,9.582035064697266
5367100,0.009765632450580597,0.017456067726016045,0.0,0.9998176097869873,-0.34375011920928955,0.19140632450580597,9.769535064697266
5371900,0.009765632450580597,0.017456067726016045,0.0,0.9998176097869873,-0.34375011920928955,0.23046883940696716,9.613285064697266
5375688,0.009765632450580597,0.017456067726016045,0.0,0.9998176097869873,-0.34375011920928955,0.19140632450580597,9.652347564697266
5380128,0.009765632450580597,0.017456067726016045,0.0,0.9998176097869873,-0.34375011920928955,0.19140632450580597,9.652347564697266
5384084,0.009765632450580597,0.017456067726016045,0.0,0.9998176097869873,-0.30468761920928955,0.19140632450580597,9.582035064697266
5388856,0.009765632450580597,0.017456067726016045,0.0,0.9998176097869873,-0.34375011920928955,0.23046883940696716,9.652347564697266
5392620,0.009765632450580597,0.017456067726016045,0.0,0.9998176097869873,-0.38281264901161194,0.11328128725290298,9.609378814697266
5397012,0.009765632450580597,0.017456067726016045,0.0,0.9998176097869873,-0.38281264901161194,0.11328128725290298,9.609378814697266
5400780,0.009765632450580597,0.017456067726016045,0.0,0.9998176097869873,-0.30468761920928955,0.19140632450580597,9.691410064697266
5405192,0.009765632450580597,0.017456067726016045,0.0,0.9998176097869873,-0.34375011920928955,0.26953133940696716,9.648441314697266
5409592,0.009765632450580597,0.017456067726016045,0.0,0.9998176097869873,-0.34375011920928955,0.26953133940696716,9.648441314697266
5414352,0.009765632450580597,0.017456067726016045,0.0,0.9998176097869873,-0.38281264901161194,0.07812502980232239,9.542972564697266
5418160,0.009765632450580597,0.017456067726016045,0.0,0.9998176097869873,-0.34375011920928955,0.23046883940696716,9.613285064697266
5422560,0.009765632450580597,0.017456067726016045,0.0,0.9998176097869873,-0.30468761920928955,0.19140632450580597,9.609378814697266
5426972,0.009765632450580597,0.017456067726016045,0.0,0.9998176097869873,-0.30468761920928955,0.19140632450580597,9.648441314697266
5431564,0.009765632450580597,0.017456067726016045,0.0,0.9998176097869873,-0.34375011920928955,0.15234380960464478,9.609378814697266
5436348,0.009765632450580597,0.017456067726016045,0.0,0.9998176097869873,-0.34375011920928955,0.19140632450580597,9.613285064697266
5441112,0.009765632450580597,0.017456067726016045,0.0,0.9998176097869873,-0.34375011920928955,0.30468761920928955,9.613285064697266
5444884,0.009765632450580597,0.017456067726016045,0.0,0.9998176097869873,-0.34375011920928955,0.23046883940696716,9.652347564697266
5448944,0.009765632450580597,0.017456067726016045,6.103519990574569e-05,0.9998176097869873,-0.34375011920928955,0.23046883940696716,9.652347564697266
5454280,0.009765632450580597,0.017456067726016045,6.103519990574569e-05,0.9998176097869873,-0.30468761920928955,0.23046883940696716,9.648441314697266
5459088,0.009765632450580597,0.017456067726016045,6.103519990574569e-05,0.9998176097869873,-0.34375011920928955,0.19140632450580597,9.613285064697266
5463336,0.009765632450580597,0.017456067726016045,6.103519990574569e-05,0.9998176097869873,-0.34375011920928955,0.15234380960464478,9.648441314697266
5468048,0.009765632450580597,0.017456067726016045,6.103519990574569e-05,0.9998176097869873,-0.34375011920928955,0.19140632450580597,9.652347564697266
5472464,0.009765632450580597,0.017456067726016045,6.103519990574569e-05,0.9998176097869873,-0.34375011920928955,0.19140632450580597,9.652347564697266
5476516,0.009765632450580597,0.017456067726016045,6.103519990574569e-05,0.9998176097869873,-0.34375011920928955,0.19140632450580597,9.652347564697266
5481944,0.009765632450580597,0.017456067726016045,6.103519990574569e-05,0.9998176097869873,-0.30468761920928955,0.15234380960464478,9.578128814697266
5485728,0.009765632450580597,0.017456067726016045,6.103519990574569e-05,0.9998176097869873,-0.30468761920928955,0.19140632450580597,9.648441314697266
5489136,0.009765632450580597,0.017456067726016045,6.103519990574569e-05,0.9998176097869873,-0.30468761920928955,0.19140632450580597,9.648441314697266
5493916,0.009765632450580597,0.017456067726016045,6.103519990574569e-05,0.9998176097869873,-0.30468761920928955,0.19140632450580597,9.609378814697266
5498724,0.009765632450580597,0.017456067726016045,6.103519990574569e-05,0.9998176097869873,-0.34375011920928955,0.23046883940696716,9.652347564697266
5503548,0.009765632450580597,0.017456067726016045,6.103519990574569e-05,0.9998176097869873,-0.34375011920928955,0.23046883940696716,9.687503814697266
5507604,0.009765632450580597,0.017456067726016045,6.103519990574569e-05,0.9998176097869873,-0.38281264901161194,0.11328128725290298,9.691410064697266
5513040,0.009765632450580597,0.017456067726016045,6.103519990574569e-05,0.9998176097869873,-0.38281264901161194,0.11328128725290298,9.691410064697266
5516836,0.009765632450580597,0.017456067726016045,6.103519990574569e-05,0.9998176097869873,-0.30468761920928955,0.19140632450580597,9.582035064697266
5521256,0.009765632450580597,0.017456067726016045,6.103519990574569e-05,0.9998176097869873,-0.30468761920928955,0.26953133940696716,9.613285064697266
5525668,0.009765632450580597,0.017456067726016045,6.103519990574569e-05,0.9998176097869873,-0.38281264901161194,0.23046883940696716,9.578128814697266
5530088,0.009765632450580597,0.017456067726016045,6.103519990574569e-05,0.9998176097869873,-0.38281264901161194,0.23046883940696716,9.578128814697266
5533876,0.009765632450580597,0.017456067726016045,6.103519990574569e-05,0.9998176097869873,-0.30468761920928955,0.23046883940696716,9.648441314697266
5538288,0.009765632450580597,0.017456067726016045,6.103519990574569e-05,0.9998176097869873,-0.34375011920928955,0.15234380960464478,9.648441314697266
5542716,0.009765632450580597,0.017456067726016045,6.103519990574569e-05,0.9998176097869873,-0.34375011920928955,0.15234380960464478,9.648441314697266
5547116,0.009765632450580597,0.017456067726016045,6.103519990574569e-05,0.9998176097869873,-0.34375011920928955,0.15234380960464478,9.648441314697266
5550880,0.009765632450580597,0.017456067726016045,6.103519990574569e-05,0.9998176097869873,-0.34375011920928955,0.19140632450580597,9.687503814697266
5555664,0.009765632450580597,0.017456067726016045,6.103519990574569e-05,0.9998176097869873,-0.34375011920928955,0.19140632450580597,9.687503814697266
5560076,0.009765632450580597,0.017456067726016045,6.103519990574569e-05,0.9998176097869873,-0.34375011920928955,0.19140632450580597,9.687503814697266
5564572,0.009765632450580597,0.017456067726016045,6.103519990574569e-05,0.9998176097869873,-0.38281264901161194,0.11328128725290298,9.648441314697266
5568332,0.009765632450580597,0.017456067726016045,6.103519990574569e-05,0.9998176097869873,-0.38281264901161194,0.11328128725290298,9.648441314697266
5572384,0.009765632450580597,0.017456067726016045,6.103519990574569e-05,0.9998176097869873,-0.38281264901161194,0.11328128725290298,9.648441314697266
5576828,0.009765632450580597,0.017456067726016045,6.103519990574569e-05,0.9998176097869873,-0.38281264901161194,0.23046883940696716,9.578128814697266
5581260,0.009765632450580597,0.017456067726016045,6.103519990574569e-05,0.9998176097869873,-0.38281264901161194,0.23046883940696716,9.578128814697266
5585316,0.009765632450580597,0.017456067726016045,6.103519990574569e-05,0.9998176097869873,-0.38281264901161194,0.23046883940696716,9.578128814697266
5589864,0.009765632450580597,0.017456067726016045,6.103519990574569e-05,0.9998176097869873,-0.30468761920928955,0.11328128725290298,9.652347564697266
5595232,0.009765632450580597,0.017456067726016045,6.103519990574569e-05,0.9998176097869873,-0.30468761920928955,0.19140632450580597,9.582035064697266
5599636,0.009765632450580597,0.017456067726016045,6.103519990574569e-05,0.9998176097869873,-0.38281264901161194,0.26953133940696716,9.648441314697266
5603456,0.009765632450580597,0.017456067726016045,6.103519990574569e-05,0.9998176097869873,-0.30468761920928955,0.23046883940696716,9.648441314697266
5607516,0.009765632450580597,0.017456067726016045,6.103519990574569e-05,0.9998176097869873,-0.30468761920928955,0.23046883940696716,9.648441314697266
5612208,0.009765632450580597,0.017456067726016045,6.103519990574569e-05,0.9998176097869873,-0.26953133940696716,0.11328128725290298,9.648441314697266
5617272,0.009765632450580597,0.017456067726016045,6.103519990574569e-05,0.9998176097869873,-0.26953133940696716,0.11328128725290298,9.648441314697266
5621136,0.009765632450580597,0.017456067726016045,6.103519990574569e-05,0.9998176097869873,-0.26953133940696716,0.11328128725290298,9.648441314697266
5625204,0.009765632450580597,0.017456067726016045,6.103519990574569e-05,0.9998176097869873,-0.26953133940696716,0.11328128725290298,9.648441314697266
5629620,0.009765632450580597,0.017456067726016045,6.103519990574569e-05,0.9998176097869873,-0.34375011920928955,0.23046883940696716,9.652347564697266
5634172,0.009765632450580597,0.017456067726016045,6.103519990574569e-05,0.9998176097869873,-0.30468761920928955,0.11328128725290298,9.613285064697266
5638592,0.009765632450580597,0.017456067726016045,6.103519990574569e-05,0.9998176097869873,-0.30468761920928955,0.11328128725290298,9.613285064697266
5642012,0.009765632450580597,0.017456067726016045,6.103519990574569e-05,0.9998176097869873,-0.30468761920928955,0.11328128725290298,9.613285064697266
5646828,0.009765632450580597,0.017456067726016045,6.103519990574569e-05,0.9998176097869873,-0.34375011920928955,0.19140632450580597,9.613285064697266
5651848,0.009765632450580597,0.017456067726016045,6.103519990574569e-05,0.9998176097869873,-0.34375011920928955,0.15234380960464478,9.609378814697266
5656768,0.009765632450580597,0.017456067726016045,6.103519990574569e-05,0.9998176097869873,-0.34375011920928955,0.15234380960464478,9.609378814697266
5660668,0.009765632450580597,0.017456067726016045,6.103519990574569e-05,0.9998176097869873,-0.34375011920928955,0.15234380960464478,9.609378814697266
5665076,0.009765632450580597,0.017456067726016045,6.103519990574569e-05,0.9998176097869873,-0.34375011920928955,0.15234380960464478,9.609378814697266
5669496,0.009765632450580597,0.017456067726016045,6.103519990574569e-05,0.9998176097869873,-0.34375011920928955,0.15234380960464478,9.609378814697266
5673924,0.009765632450580597,0.017456067726016045,6.103519990574569e-05,0.9998176097869873,-0.34375011920928955,0.15234380960464478,9.609378814697266
5678364,0.009765632450580597,0.017456067726016045,6.103519990574569e-05,0.9998176097869873,-0.34375011920928955,0.15234380960464478,9.609378814697266
5682776,0.009765632450580597,0.017456067726016045,6.103519990574569e-05,0.9998176097869873,-0.34375011920928955,0.15234380960464478,9.609378814697266
5686568,0.009765632450580597,0.017456067726016045,6.103519990574569e-05,0.9998176097869873,-0.26953133940696716,0.19140632450580597,9.613285064697266
5691348,0.009765632450580597,0.017456067726016045,6.103519990574569e-05,0.9998176097869873,-0.30468761920928955,0.19140632450580597,9.609378814697266
5696340,0.009765632450580597,0.017456067726016045,6.103519990574569e-05,0.9998176097869873,-0.26953133940696716,0.15234380960464478,9.609378814697266
5700824,0.009765632450580597,0.017456067726016045,6.103519990574569e-05,0.9998176097869873,-0.26953133940696716,0.15234380960464478,9.609378814697266
5704288,0.009765632450580597,0.017456067726016045,6.103519990574569e-05,0.9998176097869873,-0.26953133940696716,0.15234380960464478,9.609378814697266
5708708,0.009765632450580597,0.017456067726016045,6.103519990574569e-05,0.9998176097869873,-0.34375011920928955,0.26953133940696716,9.582035064697266
5713220,0.009765632450580597,0.017456067726016045,6.103519990574569e-05,0.9998176097869873,-0.34375011920928955,0.15234380960464478,9.582035064697266
5718064,0.009765632450580597,0.017456067726016045,6.103519990574569e-05,0.9998176097869873,-0.34375011920928955,0.15234380960464478,9.582035064697266
5721828,0.009765632450580597,0.017456067726016045,6.103519990574569e-05,0.9998176097869873,-0.34375011920928955,0.23046883940696716,9.687503814697266
5726604,0.009765632450580597,0.017456067726016045,6.103519990574569e-05,0.9998176097869873,-0.34375011920928955,0.23046883940696716,9.687503814697266
5730372,0.009765632450580597,0.017456067726016045,6.103519990574569e-05,0.9998176097869873,-0.34375011920928955,0.23046883940696716,9.687503814697266
5733776,0.009765632450580597,0.017456067726016045,6.103519990574569e-05,0.9998176097869873,-0.34375011920928955,0.23046883940696716,9.687503814697266
5738192,0.009765632450580597,0.017456067726016045,6.103519990574569e-05,0.9998176097869873,-0.34375011920928955,0.23046883940696716,9.687503814697266
5742612,0.009765632450580597,0.017456067726016045,6.103519990574569e-05,0.9998176097869873,-0.38281264901161194,0.19140632450580597,9.652347564697266
5746380,0.009765632450580597,0.017456067726016045,6.103519990574569e-05,0.9998176097869873,-0.38281264901161194,0.19140632450580597,9.652347564697266
5750828,0.009765632450580597,0.017456067726016045,6.103519990574569e-05,0.9998176097869873,-0.38281264901161194,0.19140632450580597,9.652347564697266
5755628,0.009765632450580597,0.017456067726016045,6.103519990574569e-05,0.9998176097869873,-0.38281264901161194,0.19140632450580597,9.652347564697266
5760100,0.009765632450580597,0.017456067726016045,6.103519990574569e-05,0.9998176097869873,-0.30468761920928955,0.15234380960464478,9.652347564697266
5764880,0.009765632450580597,0.017456067726016045,6.103519990574569e-05,0.9998176097869873,-0.30468761920928955,0.15234380960464478,9.652347564697266
5769312,0.009765632450580597,0.017456067726016045,6.103519990574569e-05,0.9998176097869873,-0.34375011920928955,0.19140632450580597,9.578128814697266
5774076,0.009765632450580597,0.017456067726016045,6.103519990574569e-05,0.9998176097869873,-0.34375011920928955,0.19140632450580597,9.652347564697266
5778500,0.009765632450580597,0.017456067726016045,6.103519990574569e-05,0.9998176097869873,-0.34375011920928955,0.19140632450580597,9.652347564697266
5782268,0.009765632450580597,0.017456067726016045,6.103519990574569e-05,0.9998176097869873,-0.34375011920928955,0.19140632450580597,9.652347564697266
5786680,0.009765632450580597,0.017456067726016045,6.103519990574569e-05,0.9998176097869873,-0.34375011920928955,0.19140632450580597,9.652347564697266
5791084,0.009765632450580597,0.017456067726016045,6.103519990574569e-05,0.9998176097869873,-0.34375011920928955,0.19140632450580597,9.652347564697266
5795516,0.009765632450580597,0.017456067726016045,6.103519990574569e-05,0.9998176097869873,-0.34375011920928955,0.19140632450580597,9.652347564697266
5799292,0.009765632450580597,0.017456067726016045,6.103519990574569e-05,0.9998176097869873,-0.34375011920928955,0.19140632450580597,9.652347564697266
5803356,0.009765632450580597,0.017456067726016045,6.103519990574569e-05,0.9998176097869873,-0.34375011920928955,0.19140632450580597,9.652347564697266
5807788,0.009765632450580597,0.017456067726016045,6.103519990574569e-05,0.9998176097869873,-0.34375011920928955,0.19140632450580597,9.652347564697266
5811560,0.009765632450580597,0.017456067726016045,6.103519990574569e-05,0.9998176097869873,-0.34375011920928955,0.19140632450580597,9.687503814697266
5816988,0.009704596363008022,0.017456067726016045,6.103519990574569e-05,0.9998176097869873,-0.34375011920928955,0.19140632450580597,9.687503814697266
5821500,0.009704596363008022,0.017456067726016045,6.103519990574569e-05,0.9998176097869873,-0.34375011920928955,0.19140632450580597,9.687503814697266
5825272,0.009704596363008022,0.017456067726016045,6.103519990574569e-05,0.9998176097869873,-0.34375011920928955,0.19140632450580597,9.687503814697266
5829692,0.009704596363008022,0.017456067726016045,6.103519990574569e-05,0.9998176097869873,-0.34375011920928955,0.19140632450580597,9.687503814697266
5834276,0.009704596363008022,0.017456067726016045,6.103519990574569e-05,0.9998176097869873,-0.34375011920928955,0.19140632450580597,9.687503814697266
5838112,0.009704596363008022,0.017456067726016045,6.103519990574569e-05,0.9998176097869873,-0.34375011920928955,0.19140632450580597,9.578128814697266
5842436,0.009704596363008022,0.017456067726016045,6.103519990574569e-05,0.9998176097869873,-0.26953133940696716,0.11328128725290298,9.648441314697266
5846856,0.009704596363008022,0.017456067726016045,6.103519990574569e-05,0.9998176097869873,-0.26953133940696716,0.11328128725290298,9.648441314697266
5851272,0.009704596363008022,0.017456067726016045,6.103519990574569e-05,0.9998176097869873,-0.26953133940696716,0.11328128725290298,9.648441314697266
5855108,0.009704596363008022,0.017456067726016045,6.103519990574569e-05,0.9998176097869873,-0.34375011920928955,0.19140632450580597,9.613285064697266
5859524,0.009704596363008022,0.017456067726016045,6.103519990574569e-05,0.9998176097869873,-0.34375011920928955,0.19140632450580597,9.687503814697266
5863324,0.009704596363008022,0.017456067726016045,6.103519990574569e-05,0.9998176097869873,-0.34375011920928955,0.19140632450580597,9.687503814697266
5867388,0.009704596363008022,0.017456067726016045,6.103519990574569e-05,0.9998176097869873,-0.34375011920928955,0.19140632450580597,9.687503814697266
5872156,0.009704596363008022,0.017456067726016045,6.103519990574569e-05,0.9998176097869873,-0.34375011920928955,0.15234380960464478,9.648441314697266
5876576,0.009704596363008022,0.017456067726016045,6.103519990574569e-05,0.9998176097869873,-0.34375011920928955,0.23046883940696716,9.652347564697266
5881096,0.009704596363008022,0.017456067726016045,6.103519990574569e-05,0.9998176097869873,-0.30468761920928955,0.19140632450580597,9.609378814697266
5885964,0.009704596363008022,0.017456067726016045,6.103519990574569e-05,0.9998176097869873,-0.30468761920928955,0.19140632450580597,9.609378814697266
5889736,0.009704596363008022,0.017456067726016045,6.103519990574569e-05,0.9998176097869873,-0.30468761920928955,0.11328128725290298,9.578128814697266
5894552,0.009704596363008022,0.017456067726016045,6.103519990574569e-05,0.9998176097869873,-0.30468761920928955,0.11328128725290298,9.578128814697266
5898320,0.009704596363008022,0.017456067726016045,6.103519990574569e-05,0.9998176097869873,-0.30468761920928955,0.11328128725290298,9.578128814697266
5902372,0.009704596363008022,0.017456067726016045,6.103519990574569e-05,0.9998176097869873,-0.30468761920928955,0.11328128725290298,9.578128814697266
5907152,0.009704596363008022,0.017456067726016045,6.103519990574569e-05,0.9998176097869873,-0.30468761920928955,0.11328128725290298,9.578128814697266
5911576,0.009704596363008022,0.017456067726016045,6.103519990574569e-05,0.9998176097869873,-0.30468761920928955,0.11328128725290298,9.578128814697266
5915992,0.009704596363008022,0.017456067726016045,6.103519990574569e-05,0.9998176097869873,-0.30468761920928955,0.11328128725290298,9.578128814697266
5920448,0.009704596363008022,0.017456067726016045,6.103519990574569e-05,0.9998176097869873,-0.30468761920928955,0.19140632450580597,9.609378814697266
5924244,0.009704596363008022,0.017456067726016045,6.103519990574569e-05,0.9998176097869873,-0.30468761920928955,0.19140632450580597,9.609378814697266
5928304,0.009704596363008022,0.017456067726016045,6.103519990574569e-05,0.9998176097869873,-0.30468761920928955,0.19140632450580597,9.609378814697266
5932668,0.009704596363008022,0.017456067726016045,6.103519990574569e-05,0.9998176097869873,-0.38281264901161194,0.19140632450580597,9.652347564697266
5937088,0.009704596363008022,0.017456067726016045,6.103519990574569e-05,0.9998176097869873,-0.38281264901161194,0.19140632450580597,9.652347564697266
5941128,0.009704596363008022,0.017456067726016045,6.103519990574569e-05,0.9998176097869873,-0.38281264901161194,0.19140632450580597,9.652347564697266
5944912,0.009704596363008022,0.017456067726016045,6.103519990574569e-05,0.9998176097869873,-0.30468761920928955,0.19140632450580597,9.582035064697266
5950332,0.009704596363008022,0.017456067726016045,6.103519990574569e-05,0.9998176097869873,-0.30468761920928955,0.19140632450580597,9.582035064697266
5954132,0.009704596363008022,0.017456067726016045,6.103519990574569e-05,0.9998176097869873,-0.30468761920928955,0.23046883940696716,9.648441314697266
5958544,0.009704596363008022,0.017456067726016045,6.103519990574569e-05,0.9998176097869873,-0.30468761920928955,0.23046883940696716,9.648441314697266
5963324,0.009704596363008022,0.017456067726016045,6.103519990574569e-05,0.9998176097869873,-0.34375011920928955,0.23046883940696716,9.613285064697266
5967748,0.009704596363008022,0.017456067726016045,6.103519990574569e-05,0.9998176097869873,-0.34375011920928955,0.23046883940696716,9.613285064697266
5972556,0.009704596363008022,0.017456067726016045,6.103519990574569e-05,0.9998176097869873,-0.38281264901161194,0.19140632450580597,9.578128814697266
5976332,0.009704596363008022,0.017456067726016045,6.103519990574569e-05,0.9998176097869873,-0.38281264901161194,0.19140632450580597,9.578128814697266
5979740,0.009704596363008022,0.017456067726016045,6.103519990574569e-05,0.9998176097869873,-0.38281264901161194,0.19140632450580597,9.578128814697266
5983812,0.009704596363008022,0.017456067726016045,6.103519990574569e-05,0.9998176097869873,-0.38281264901161194,0.19140632450580597,9.578128814697266
