Timestamp,QI,QJ,QK,QR,AX,AY,AZ,GX,GY,GZ
2586,0.0,0.0,0.0,0.0,-0.14453129470348358,-0.19140632450580597,9.664066314697266,0.0,0.0,0.0
2592,0.0,0.0,0.0,0.0,-0.17187505960464478,-0.18359380960464478,9.671878814697266,0.0,0.0,0.0
2599,0.0,0.0,0.0,0.0,-0.16406255960464478,-0.21093757450580597,9.679691314697266,0.0,0.0,0.0
2607,0.0,0.0,0.0,0.0,-0.14453129470348358,-0.18359380960464478,9.691410064697266,0.0,0.0,0.0
2614,0.0,0.0,0.0,0.0,-0.14453129470348358,-0.18359380960464478,9.664066314697266,0.0,0.0,0.0
2622,0.0,0.0,0.0,0.0,-0.13281254470348358,-0.21093757450580597,9.683597564697266,0.0,0.0,0.0
2630,0.0,0.0,0.0,0.0,-0.16406255960464478,-0.18359380960464478,9.683597564697266,0.0,0.0,0.0
2646,0.0,0.0,0.0,0.0,-0.16406255960464478,-0.18359380960464478,9.683597564697266,0.001953126396983862,0.001953126396983862,-0.003906252793967724
2661,0.0,0.0,0.0,0.0,-0.14453129470348358,-0.19140632450580597,9.691410064697266,0.001953126396983862,0.001953126396983862,-0.003906252793967724
2669,0.0,0.0,0.0,0.0,-0.14453129470348358,-0.19140632450580597,9.691410064697266,0.001953126396983862,0.001953126396983862,0.003906252793967724
2699,0.0,0.0,0.0,0.0,-0.14453129470348358,-0.19140632450580597,9.691410064697266,0.0,0.001953126396983862,0.009765632450580597
2718,0.0,0.0,0.0,0.0,-0.14453129470348358,-0.19140632450580597,9.691410064697266,-0.003906252793967724,0.005859379190951586,0.007812505587935448
2738,0.0,0.0,0.0,0.0,-0.16406255960464478,-0.19140632450580597,9.671878814697266,-0.003906252793967724,0.005859379190951586,0.007812505587935448
2747,0.0,0.0,0.0,0.0,-0.16406255960464478,-0.19140632450580597,9.671878814697266,0.001953126396983862,0.0,0.0
2756,0.0,0.0,0.0,0.0,-0.16406255960464478,-0.19140632450580597,9.671878814697266,0.001953126396983862,-0.001953126396983862,0.0
2764,0.0,0.0,0.0,0.0,-0.15234380960464478,-0.19140632450580597,9.722660064697266,0.001953126396983862,-0.001953126396983862,0.0
2774,0.0,0.0,0.0,0.0,-0.16406255960464478,-0.21093757450580597,9.687503814697266,0.001953126396983862,-0.001953126396983862,0.0
2786,0.0,0.0,0.0,0.0,-0.14453129470348358,-0.23046883940696716,9.691410064697266,0.001953126396983862,-0.001953126396983862,0.0
2795,0.0,0.0,0.0,0.0,-0.13281254470348358,-0.18359380960464478,9.687503814697266,0.001953126396983862,-0.001953126396983862,0.0
2803,0.0,0.0,0.0,0.0,-0.14453129470348358,-0.19921882450580597,9.675785064697266,0.001953126396983862,-0.001953126396983862,0.0
2816,0.0,0.0,0.0,0.0,-0.15234380960464478,-0.21093757450580597,9.703128814697266,0.001953126396983862,-0.001953126396983862,0.0
2825,0.0,0.0,0.0,0.0,-0.15234380960464478,-0.21093757450580597,9.703128814697266,0.0,0.003906252793967724,-0.001953126396983862
2833,0.0,0.0,0.0,0.0,-0.14453129470348358,-0.18359380960464478,9.691410064697266,0.0,0.003906252793967724,-0.001953126396983862
2845,0.0,0.0,0.0,0.0,-0.14453129470348358,-0.21093757450580597,9.687503814697266,0.0,0.003906252793967724,-0.001953126396983862
2854,0.0,0.0,0.0,0.0,-0.14453129470348358,-0.21093757450580597,9.687503814697266,0.0,-0.001953126396983862,0.001953126396983862
2864,0.0,0.0,0.0,0.0,-0.16406255960464478,-0.18359380960464478,9.691410064697266,0.0,-0.001953126396983862,0.001953126396983862
2873,0.0,0.0,0.0,0.0,-0.14453129470348358,-0.19921882450580597,9.679691314697266,0.0,-0.001953126396983862,0.001953126396983862
2879,0.0,0.0,0.0,0.0,-0.16406255960464478,-0.21093757450580597,9.687503814697266,0.0,-0.001953126396983862,0.001953126396983862
2887,-0.009460455738008022,0.008544928394258022,0.00012207039981149137,0.9999396800994873,-0.16406255960464478,-0.21093757450580597,9.687503814697266,0.0,-0.001953126396983862,0.001953126396983862
2917,-0.009460455738008022,0.008544928394258022,0.00012207039981149137,0.9999396800994873,-0.16406255960464478,-0.21093757450580597,9.687503814697266,0.0,0.003906252793967724,0.001953126396983862
2947,-0.009460455738008022,0.008544928394258022,0.00012207039981149137,0.9999396800994873,-0.16406255960464478,-0.21093757450580597,9.687503814697266,-0.003906252793967724,0.001953126396983862,0.003906252793967724
2956,-0.009460455738008022,0.008544928394258022,0.00012207039981149137,0.9999396800994873,-0.16406255960464478,-0.21093757450580597,9.687503814697266,-0.005859379190951586,0.001953126396983862,0.005859379190951586
2965,-0.009460455738008022,0.008544928394258022,0.00012207039981149137,0.9999396800994873,-0.16406255960464478,-0.21093757450580597,9.687503814697266,-0.001953126396983862,0.0,0.003906252793967724
2974,-0.009460455738008022,0.008544928394258022,0.00012207039981149137,0.9999396800994873,-0.14453129470348358,-0.19921882450580597,9.675785064697266,-0.001953126396983862,0.0,0.003906252793967724
2984,-0.009460455738008022,0.008544928394258022,0.00012207039981149137,0.9999396800994873,-0.15234380960464478,-0.19140632450580597,9.679691314697266,-0.001953126396983862,0.0,0.003906252793967724
2994,-0.009460455738008022,0.008544928394258022,0.00012207039981149137,0.9999396800994873,-0.15234380960464478,-0.19140632450580597,9.679691314697266,-0.005859379190951586,0.001953126396983862,-0.003906252793967724
3003,-0.009460455738008022,0.008544928394258022,0.00012207039981149137,0.9999396800994873,-0.16406255960464478,-0.19921882450580597,9.675785064697266,-0.005859379190951586,0.001953126396983862,-0.003906252793967724
3011,-0.009460455738008022,0.008544928394258022,0.00012207039981149137,0.9999396800994873,-0.16406255960464478,-0.19140632450580597,9.691410064697266,-0.005859379190951586,0.001953126396983862,-0.003906252793967724
3023,-0.009460455738008022,0.008544928394258022,0.00012207039981149137,0.9999396800994873,-0.16406255960464478,-0.19921882450580597,9.667972564697266,-0.005859379190951586,0.001953126396983862,-0.003906252793967724
3033,-0.009460455738008022,0.008544928394258022,0.00012207039981149137,0.9999396800994873,-0.16406255960464478,-0.19921882450580597,9.667972564697266,0.001953126396983862,-0.001953126396983862,0.003906252793967724
3042,-0.009460455738008022,0.008544928394258022,0.00012207039981149137,0.9999396800994873,-0.15234380960464478,-0.19921882450580597,9.683597564697266,0.001953126396983862,-0.001953126396983862,0.003906252793967724
3048,-0.009460455738008022,0.008544928394258022,0.00012207039981149137,0.9999396800994873,-0.14453129470348358,-0.19140632450580597,9.714847564697266,0.001953126396983862,-0.001953126396983862,0.003906252793967724
3056,-0.009765632450580597,0.008544928394258022,0.00030517601408064365,0.9999396800994873,-0.14453129470348358,-0.19140632450580597,9.714847564697266,0.001953126396983862,-0.001953126396983862,0.003906252793967724
3065,-0.009765632450580597,0.008544928394258022,0.00030517601408064365,0.9999396800994873,-0.14453129470348358,-0.19140632450580597,9.714847564697266,-0.005859379190951586,0.007812505587935448,-0.003906252793967724
3085,-0.009765632450580597,0.008544928394258022,0.00030517601408064365,0.9999396800994873,-0.14453129470348358,-0.19140632450580597,9.683597564697266,-0.005859379190951586,0.007812505587935448,-0.003906252793967724
3105,-0.009765632450580597,0.008544928394258022,0.00030517601408064365,0.9999396800994873,-0.14453129470348358,-0.19140632450580597,9.683597564697266,0.0,0.003906252793967724,-0.001953126396983862
3124,-0.009765632450580597,0.008544928394258022,0.00030517601408064365,0.9999396800994873,-0.14453129470348358,-0.19140632450580597,9.683597564697266,-0.001953126396983862,0.003906252793967724,-0.005859379190951586
3133,-0.009765632450580597,0.008544928394258022,0.00030517601408064365,0.9999396800994873,-0.14453129470348358,-0.19140632450580597,9.683597564697266,0.0,0.003906252793967724,0.003906252793967724
3142,-0.009765632450580597,0.008544928394258022,0.00030517601408064365,0.9999396800994873,-0.14453129470348358,-0.19140632450580597,9.703128814697266,0.0,0.003906252793967724,0.003906252793967724
3150,-0.009765632450580597,0.008544928394258022,0.00030517601408064365,0.9999396800994873,-0.14453129470348358,-0.19140632450580597,9.703128814697266,0.0,0.003906252793967724,0.003906252793967724
3160,-0.009765632450580597,0.008544928394258022,0.00030517601408064365,0.9999396800994873,-0.15234380960464478,-0.21093757450580597,9.703128814697266,0.0,0.003906252793967724,0.003906252793967724
3172,-0.009765632450580597,0.008544928394258022,0.00030517601408064365,0.9999396800994873,-0.13281254470348358,-0.19140632450580597,9.707035064697266,0.0,0.003906252793967724,0.003906252793967724
3181,-0.009765632450580597,0.008544928394258022,0.00030517601408064365,0.9999396800994873,-0.15234380960464478,-0.18359380960464478,9.687503814697266,0.0,0.003906252793967724,0.003906252793967724
3189,-0.009765632450580597,0.008544928394258022,0.00030517601408064365,0.9999396800994873,-0.12500004470348358,-0.19921882450580597,9.734378814697266,0.0,0.003906252793967724,0.003906252793967724
3202,-0.009765632450580597,0.008544928394258022,0.00030517601408064365,0.9999396800994873,-0.14453129470348358,-0.21093757450580597,9.687503814697266,0.0,0.003906252793967724,0.003906252793967724
3211,-0.009765632450580597,0.008544928394258022,0.00030517601408064365,0.9999396800994873,-0.11328128725290298,-0.19140632450580597,9.707035064697266,0.0,0.003906252793967724,0.003906252793967724
3220,-0.009765632450580597,0.008544928394258022,0.00030517601408064365,0.9999396800994873,-0.14453129470348358,-0.18359380960464478,9.691410064697266,0.0,0.003906252793967724,0.003906252793967724
3225,-0.009765632450580597,0.008544928394258022,0.00030517601408064365,0.9999396800994873,-0.16406255960464478,-0.19140632450580597,9.691410064697266,0.0,0.003906252793967724,0.003906252793967724
3234,-0.009765632450580597,0.008544928394258022,0.00030517601408064365,0.9999396800994873,-0.16406255960464478,-0.19140632450580597,9.691410064697266,-0.007812505587935448,0.005859379190951586,0.001953126396983862
3244,-0.009765632450580597,0.008544928394258022,0.00030517601408064365,0.9999396800994873,-0.16406255960464478,-0.19140632450580597,9.691410064697266,-0.009765632450580597,0.007812505587935448,0.003906252793967724
3263,-0.009765632450580597,0.008544928394258022,0.00030517601408064365,0.9999396800994873,-0.16406255960464478,-0.19140632450580597,9.691410064697266,-0.001953126396983862,0.0,-0.005859379190951586
3293,-0.009765632450580597,0.008544928394258022,0.00030517601408064365,0.9999396800994873,-0.16406255960464478,-0.19140632450580597,9.691410064697266,0.0,0.001953126396983862,0.005859379190951586
3312,-0.009765632450580597,0.008544928394258022,0.00030517601408064365,0.9999396800994873,-0.16406255960464478,-0.19140632450580597,9.691410064697266,-0.003906252793967724,0.011718758381903172,-0.005859379190951586
3332,-0.009765632450580597,0.008544928394258022,0.00030517601408064365,0.9999396800994873,-0.15234380960464478,-0.19140632450580597,9.687503814697266,-0.003906252793967724,0.011718758381903172,-0.005859379190951586
3341,-0.009765632450580597,0.008544928394258022,0.00030517601408064365,0.9999396800994873,-0.15234380960464478,-0.19140632450580597,9.687503814697266,0.003906252793967724,-0.003906252793967724,0.007812505587935448
3350,-0.009765632450580597,0.008544928394258022,0.00030517601408064365,0.9999396800994873,-0.13281254470348358,-0.19921882450580597,9.683597564697266,0.003906252793967724,-0.003906252793967724,0.007812505587935448
3358,-0.009765632450580597,0.008544928394258022,0.00030517601408064365,0.9999396800994873,-0.13281254470348358,-0.18359380960464478,9.679691314697266,0.003906252793967724,-0.003906252793967724,0.007812505587935448
3367,-0.009765632450580597,0.008544928394258022,0.00030517601408064365,0.9999396800994873,-0.15234380960464478,-0.19140632450580597,9.675785064697266,0.003906252793967724,-0.003906252793967724,0.007812505587935448
3380,-0.009765632450580597,0.008544928394258022,0.00030517601408064365,0.9999396800994873,-0.15234380960464478,-0.18359380960464478,9.707035064697266,0.003906252793967724,-0.003906252793967724,0.007812505587935448
3389,-0.009765632450580597,0.008544928394258022,0.00030517601408064365,0.9999396800994873,-0.13281254470348358,-0.19140632450580597,9.722660064697266,0.003906252793967724,-0.003906252793967724,0.007812505587935448
3398,-0.009765632450580597,0.008544928394258022,0.00030517601408064365,0.9999396800994873,-0.13281254470348358,-0.19140632450580597,9.687503814697266,0.003906252793967724,-0.003906252793967724,0.007812505587935448
3403,-0.009765632450580597,0.008544928394258022,0.00030517601408064365,0.9999396800994873,-0.12500004470348358,-0.17187505960464478,9.683597564697266,0.003906252793967724,-0.003906252793967724,0.007812505587935448
3412,-0.009765632450580597,0.008544928394258022,0.00030517601408064365,0.9999396800994873,-0.12500004470348358,-0.17187505960464478,9.683597564697266,-0.009765632450580597,0.003906252793967724,-0.007812505587935448
3422,-0.009765632450580597,0.008544928394258022,0.00030517601408064365,0.9999396800994873,-0.12500004470348358,-0.17187505960464478,9.683597564697266,-0.009765632450580597,0.005859379190951586,-0.003906252793967724
3441,-0.009765632450580597,0.008544928394258022,0.00030517601408064365,0.9999396800994873,-0.12500004470348358,-0.17187505960464478,9.683597564697266,0.001953126396983862,0.005859379190951586,-0.001953126396983862
3471,-0.009765632450580597,0.008544928394258022,0.00030517601408064365,0.9999396800994873,-0.12500004470348358,-0.17187505960464478,9.683597564697266,-0.007812505587935448,0.0,0.0
3490,-0.009765632450580597,0.008544928394258022,0.00030517601408064365,0.9999396800994873,-0.12500004470348358,-0.17187505960464478,9.683597564697266,-0.009765632450580597,-0.001953126396983862,-0.009765632450580597
3510,-0.009765632450580597,0.008544928394258022,0.00030517601408064365,0.9999396800994873,-0.12500004470348358,-0.17187505960464478,9.683597564697266,0.001953126396983862,-0.009765632450580597,0.0
3519,-0.009765632450580597,0.008544928394258022,0.00030517601408064365,0.9999396800994873,-0.12500004470348358,-0.17187505960464478,9.683597564697266,0.0,-0.001953126396983862,0.007812505587935448
3528,-0.009765632450580597,0.008544928394258022,0.00030517601408064365,0.9999396800994873,-0.11328128725290298,-0.19140632450580597,9.707035064697266,0.0,-0.001953126396983862,0.007812505587935448
3537,-0.009765632450580597,0.008544928394258022,0.00030517601408064365,0.9999396800994873,-0.14453129470348358,-0.19140632450580597,9.714847564697266,0.0,-0.001953126396983862,0.007812505587935448
3546,-0.009765632450580597,0.008544928394258022,0.00030517601408064365,0.9999396800994873,-0.15234380960464478,-0.19140632450580597,9.679691314697266,0.0,-0.001953126396983862,0.007812505587935448
3558,-0.009765632450580597,0.008544928394258022,0.00030517601408064365,0.9999396800994873,-0.15234380960464478,-0.18359380960464478,9.707035064697266,0.0,-0.001953126396983862,0.007812505587935448
3567,-0.009765632450580597,0.008544928394258022,0.00030517601408064365,0.9999396800994873,-0.12500004470348358,-0.19140632450580597,9.671878814697266,0.0,-0.001953126396983862,0.007812505587935448
3575,-0.009765632450580597,0.008544928394258022,0.00030517601408064365,0.9999396800994873,-0.14453129470348358,-0.19921882450580597,9.710941314697266,0.0,-0.001953126396983862,0.007812505587935448
3588,-0.009765632450580597,0.008544928394258022,0.00030517601408064365,0.9999396800994873,-0.13281254470348358,-0.19921882450580597,9.703128814697266,0.0,-0.001953126396983862,0.007812505587935448
3597,-0.009765632450580597,0.008544928394258022,0.00030517601408064365,0.9999396800994873,-0.16406255960464478,-0.18359380960464478,9.691410064697266,0.0,-0.001953126396983862,0.007812505587935448
3606,-0.009765632450580597,0.008544928394258022,0.00030517601408064365,0.9999396800994873,-0.15234380960464478,-0.18359380960464478,9.734378814697266,0.0,-0.001953126396983862,0.007812505587935448
3615,-0.009765632450580597,0.008544928394258022,0.00030517601408064365,0.9999396800994873,-0.15234380960464478,-0.19140632450580597,9.707035064697266,0.0,-0.001953126396983862,0.007812505587935448
3621,-0.009765632450580597,0.008544928394258022,0.00030517601408064365,0.9999396800994873,-0.13281254470348358,-0.19921882450580597,9.703128814697266,0.0,-0.001953126396983862,0.007812505587935448
3631,-0.009765632450580597,0.008544928394258022,0.00030517601408064365,0.9999396800994873,-0.13281254470348358,-0.19921882450580597,9.703128814697266,0.009765632450580597,0.001953126396983862,0.007812505587935448
3640,-0.009765632450580597,0.008544928394258022,0.00030517601408064365,0.9999396800994873,-0.13281254470348358,-0.19921882450580597,9.703128814697266,0.007812505587935448,0.001953126396983862,0.013671884313225746
3649,-0.009765632450580597,0.008544928394258022,0.00030517601408064365,0.9999396800994873,-0.13281254470348358,-0.19921882450580597,9.703128814697266,-0.001953126396983862,0.007812505587935448,0.009765632450580597
3658,-0.009765632450580597,0.008544928394258022,0.00030517601408064365,0.9999396800994873,-0.13281254470348358,-0.19921882450580597,9.703128814697266,-0.007812505587935448,0.007812505587935448,0.009765632450580597
3667,-0.009765632450580597,0.008544928394258022,0.00030517601408064365,0.9999396800994873,-0.15234380960464478,-0.21093757450580597,9.703128814697266,-0.007812505587935448,0.007812505587935448,0.009765632450580597
3678,-0.009765632450580597,0.008544928394258022,0.00030517601408064365,0.9999396800994873,-0.13281254470348358,-0.19921882450580597,9.718753814697266,-0.007812505587935448,0.007812505587935448,0.009765632450580597
3686,-0.009765632450580597,0.008544928394258022,0.00030517601408064365,0.9999396800994873,-0.13281254470348358,-0.19921882450580597,9.718753814697266,-0.011718758381903172,0.001953126396983862,-0.007812505587935448
3695,-0.009765632450580597,0.008544928394258022,0.00030517601408064365,0.9999396800994873,-0.13281254470348358,-0.19921882450580597,9.718753814697266,-0.003906252793967724,-0.001953126396983862,-0.005859379190951586
3704,-0.009765632450580597,0.008544928394258022,0.00030517601408064365,0.9999396800994873,-0.12500004470348358,-0.19140632450580597,9.683597564697266,-0.003906252793967724,-0.001953126396983862,-0.005859379190951586
3717,-0.009765632450580597,0.008544928394258022,0.00030517601408064365,0.9999396800994873,-0.14453129470348358,-0.19140632450580597,9.683597564697266,-0.003906252793967724,-0.001953126396983862,-0.005859379190951586
3725,-0.009765632450580597,0.008544928394258022,0.00030517601408064365,0.9999396800994873,-0.14453129470348358,-0.19140632450580597,9.683597564697266,0.0,0.0,0.0
3734,-0.009765632450580597,0.008544928394258022,0.00030517601408064365,0.9999396800994873,-0.14453129470348358,-0.19921882450580597,9.687503814697266,0.0,0.0,0.0
3746,-0.009765632450580597,0.008544928394258022,0.00030517601408064365,0.9999396800994873,-0.14453129470348358,-0.19140632450580597,9.714847564697266,0.0,0.0,0.0
3756,-0.009765632450580597,0.008544928394258022,0.00030517601408064365,0.9999396800994873,-0.14453129470348358,-0.19140632450580597,9.714847564697266,0.0,0.0,0.0
3764,-0.009765632450580597,0.008544928394258022,0.00030517601408064365,0.9999396800994873,-0.14453129470348358,-0.19140632450580597,9.714847564697266,0.0,0.0,0.0
3770,-0.009765632450580597,0.008544928394258022,0.00030517601408064365,0.9999396800994873,-0.16406255960464478,-0.19921882450580597,9.679691314697266,0.0,0.0,0.0
3779,-0.009765632450580597,0.008544928394258022,0.00030517601408064365,0.9999396800994873,-0.16406255960464478,-0.19921882450580597,9.679691314697266,0.0,0.0,0.0
3788,-0.009765632450580597,0.008544928394258022,0.00030517601408064365,0.9999396800994873,-0.16406255960464478,-0.19921882450580597,9.679691314697266,0.0,0.0,0.0
3818,-0.009765632450580597,0.008544928394258022,0.00030517601408064365,0.9999396800994873,-0.16406255960464478,-0.19921882450580597,9.679691314697266,0.0,0.0,0.0
3837,-0.009765632450580597,0.008544928394258022,0.00030517601408064365,0.9999396800994873,-0.16406255960464478,-0.19921882450580597,9.679691314697266,0.0,0.0,0.0
3856,-0.009765632450580597,0.008544928394258022,0.00030517601408064365,0.9999396800994873,-0.16406255960464478,-0.19921882450580597,9.679691314697266,0.0,0.0,0.0
3865,-0.009765632450580597,0.008544928394258022,0.00030517601408064365,0.9999396800994873,-0.16406255960464478,-0.19921882450580597,9.679691314697266,0.0,0.0,0.0
3874,-0.009765632450580597,0.008544928394258022,0.00030517601408064365,0.9999396800994873,-0.14453129470348358,-0.19140632450580597,9.714847564697266,0.0,0.0,0.0
3880,-0.009765632450580597,0.008544928394258022,0.00030517601408064365,0.9999396800994873,-0.14453129470348358,-0.18359380960464478,9.714847564697266,0.0,0.0,0.0
3890,-0.009765632450580597,0.008544928394258022,0.00030517601408064365,0.9999396800994873,-0.14453129470348358,-0.18359380960464478,9.714847564697266,0.0,0.0,0.0
3898,-0.009765632450580597,0.008544928394258022,0.00030517601408064365,0.9999396800994873,-0.14453129470348358,-0.18359380960464478,9.714847564697266,0.0,0.0,0.0
3907,-0.009765632450580597,0.008544928394258022,0.00030517601408064365,0.9999396800994873,-0.14453129470348358,-0.18359380960464478,9.714847564697266,0.0,0.0,0.0
3917,-0.009765632450580597,0.008544928394258022,0.00030517601408064365,0.9999396800994873,-0.14453129470348358,-0.19921882450580597,9.707035064697266,0.0,0.0,0.0
3926,-0.009765632450580597,0.008544928394258022,0.00030517601408064365,0.9999396800994873,-0.14453129470348358,-0.19921882450580597,9.707035064697266,0.0,0.0,0.0
3935,-0.009765632450580597,0.008544928394258022,0.00030517601408064365,0.9999396800994873,-0.14453129470348358,-0.19921882450580597,9.707035064697266,0.0,0.0,0.0
3945,-0.009765632450580597,0.008544928394258022,0.00030517601408064365,0.9999396800994873,-0.12500004470348358,-0.18359380960464478,9.691410064697266,0.0,0.0,0.0
3953,-0.009765632450580597,0.008544928394258022,0.00030517601408064365,0.9999396800994873,-0.15234380960464478,-0.19140632450580597,9.710941314697266,0.0,0.0,0.0
3962,-0.009765632450580597,0.008544928394258022,0.00030517601408064365,0.9999396800994873,-0.15234380960464478,-0.19921882450580597,9.691410064697266,0.0,0.0,0.0
3972,-0.009765632450580597,0.008544928394258022,0.00030517601408064365,0.9999396800994873,-0.15234380960464478,-0.19921882450580597,9.671878814697266,0.0,0.0,0.0
3985,-0.009765632450580597,0.008544928394258022,0.00030517601408064365,0.9999396800994873,-0.13281254470348358,-0.19921882450580597,9.730472564697266,0.0,0.0,0.0
3994,-0.009765632450580597,0.008544928394258022,0.00030517601408064365,0.9999396800994873,-0.13281254470348358,-0.19921882450580597,9.730472564697266,0.0,0.0,0.0
4004,-0.009765632450580597,0.008544928394258022,0.00030517601408064365,0.9999396800994873,-0.13281254470348358,-0.19921882450580597,9.730472564697266,0.0,0.0,0.0
4013,-0.009765632450580597,0.008544928394258022,0.00030517601408064365,0.9999396800994873,-0.11328128725290298,-0.19921882450580597,9.683597564697266,0.0,0.0,0.0
4023,-0.009765632450580597,0.008544928394258022,0.00030517601408064365,0.9999396800994873,-0.15234380960464478,-0.19140632450580597,9.687503814697266,0.0,0.0,0.0
4031,-0.009765632450580597,0.008544928394258022,0.00030517601408064365,0.9999396800994873,-0.12500004470348358,-0.19140632450580597,9.683597564697266,0.0,0.0,0.0
4040,-0.009765632450580597,0.008544928394258022,0.00030517601408064365,0.9999396800994873,-0.12500004470348358,-0.19921882450580597,9.722660064697266,0.0,0.0,0.0
4047,-0.009765632450580597,0.008544928394258022,0.00030517601408064365,0.9999396800994873,-0.13281254470348358,-0.18359380960464478,9.679691314697266,0.0,0.0,0.0
4057,-0.009765632450580597,0.008544928394258022,0.00030517601408064365,0.9999396800994873,-0.13281254470348358,-0.18359380960464478,9.679691314697266,0.0,0.0,0.0
4066,-0.009765632450580597,0.008544928394258022,0.00030517601408064365,0.9999396800994873,-0.13281254470348358,-0.18359380960464478,9.679691314697266,0.0,0.0,0.0
4074,-0.009765632450580597,0.008544928394258022,0.00030517601408064365,0.9999396800994873,-0.13281254470348358,-0.18359380960464478,9.679691314697266,0.0,0.0,0.0
4083,-0.009765632450580597,0.008544928394258022,0.00030517601408064365,0.9999396800994873,-0.13281254470348358,-0.18359380960464478,9.687503814697266,0.0,0.0,0.0
4094,-0.009765632450580597,0.008544928394258022,0.00030517601408064365,0.9999396800994873,-0.11328128725290298,-0.19140632450580597,9.710941314697266,0.0,0.0,0.0
4104,-0.009765632450580597,0.008544928394258022,0.00030517601408064365,0.9999396800994873,-0.11328128725290298,-0.19140632450580597,9.710941314697266,0.0,0.0,0.0
4113,-0.009765632450580597,0.008544928394258022,0.00030517601408064365,0.9999396800994873,-0.11328128725290298,-0.19140632450580597,9.710941314697266,0.0,0.0,0.0
4122,-0.009765632450580597,0.008544928394258022,0.00030517601408064365,0.9999396800994873,-0.11328128725290298,-0.19921882450580597,9.703128814697266,0.0,0.0,0.0
4131,-0.009765632450580597,0.008544928394258022,0.00030517601408064365,0.9999396800994873,-0.12500004470348358,-0.21093757450580597,9.687503814697266,0.0,0.0,0.0
4140,-0.009765632450580597,0.008544928394258022,0.00030517601408064365,0.9999396800994873,-0.14453129470348358,-0.19140632450580597,9.683597564697266,0.0,0.0,0.0
4154,-0.009765632450580597,0.008544928394258022,0.00030517601408064365,0.9999396800994873,-0.16406255960464478,-0.19140632450580597,9.703128814697266,0.0,0.0,0.0
4163,-0.009765632450580597,0.008544928394258022,0.00030517601408064365,0.9999396800994873,-0.16406255960464478,-0.19140632450580597,9.703128814697266,0.0,0.0,0.0
4172,-0.009765632450580597,0.008544928394258022,0.00030517601408064365,0.9999396800994873,-0.16406255960464478,-0.19140632450580597,9.703128814697266,0.0,0.0,0.0
4182,-0.009765632450580597,0.008544928394258022,0.00030517601408064365,0.9999396800994873,-0.16406255960464478,-0.19140632450580597,9.703128814697266,0.0,0.0,0.0
4191,-0.009765632450580597,0.008544928394258022,0.00030517601408064365,0.9999396800994873,-0.14453129470348358,-0.19921882450580597,9.687503814697266,0.0,0.0,0.0
4199,-0.009765632450580597,0.008544928394258022,0.00030517601408064365,0.9999396800994873,-0.13281254470348358,-0.19140632450580597,9.722660064697266,0.0,0.0,0.0
4211,-0.009765632450580597,0.008544928394258022,0.00030517601408064365,0.9999396800994873,-0.14453129470348358,-0.19140632450580597,9.691410064697266,0.0,0.0,0.0
4220,-0.009765632450580597,0.008544928394258022,0.00030517601408064365,0.9999396800994873,-0.13281254470348358,-0.18359380960464478,9.687503814697266,0.0,0.0,0.0
4230,-0.009765632450580597,0.008544928394258022,0.00030517601408064365,0.9999396800994873,-0.14453129470348358,-0.19921882450580597,9.679691314697266,0.0,0.0,0.0
4236,-0.009765632450580597,0.008544928394258022,0.00030517601408064365,0.9999396800994873,-0.13281254470348358,-0.19140632450580597,9.726566314697266,0.0,0.0,0.0
4244,-0.009765632450580597,0.008544928394258022,0.00030517601408064365,0.9999396800994873,-0.13281254470348358,-0.19140632450580597,9.726566314697266,0.0,0.0,0.0
4253,-0.009765632450580597,0.008544928394258022,0.00030517601408064365,0.9999396800994873,-0.13281254470348358,-0.19140632450580597,9.726566314697266,0.0,0.0,0.0
4273,-0.009765632450580597,0.008544928394258022,0.00030517601408064365,0.9999396800994873,-0.13281254470348358,-0.19140632450580597,9.726566314697266,0.0,0.0,0.0
4293,-0.009765632450580597,0.008544928394258022,0.00030517601408064365,0.9999396800994873,-0.14453129470348358,-0.18359380960464478,9.671878814697266,0.0,0.0,0.0
4312,-0.009765632450580597,0.008544928394258022,0.00030517601408064365,0.9999396800994873,-0.14453129470348358,-0.18359380960464478,9.671878814697266,0.0,0.0,0.0
4321,-0.009765632450580597,0.008544928394258022,0.00030517601408064365,0.9999396800994873,-0.14453129470348358,-0.18359380960464478,9.671878814697266,0.0,0.0,0.0
4330,-0.009765632450580597,0.008544928394258022,0.00030517601408064365,0.9999396800994873,-0.14453129470348358,-0.19921882450580597,9.722660064697266,0.0,0.0,0.0
4338,-0.009765632450580597,0.008544928394258022,0.00030517601408064365,0.9999396800994873,-0.15234380960464478,-0.19921882450580597,9.753910064697266,0.0,0.0,0.0
4347,-0.009765632450580597,0.008544928394258022,0.00030517601408064365,0.9999396800994873,-0.13281254470348358,-0.19140632450580597,9.687503814697266,0.0,0.0,0.0
4355,-0.009765632450580597,0.008544928394258022,0.00030517601408064365,0.9999396800994873,-0.14453129470348358,-0.21093757450580597,9.707035064697266,0.0,0.0,0.0
4364,-0.009765632450580597,0.008544928394258022,0.00030517601408064365,0.9999396800994873,-0.14453129470348358,-0.21093757450580597,9.707035064697266,0.0,0.0,0.0
4372,-0.009765632450580597,0.008544928394258022,0.00030517601408064365,0.9999396800994873,-0.14453129470348358,-0.21093757450580597,9.707035064697266,0.0,0.0,0.0
4402,-0.009765632450580597,0.008544928394258022,0.00030517601408064365,0.9999396800994873,-0.14453129470348358,-0.21093757450580597,9.707035064697266,0.0,0.0,0.0
4431,-0.009765632450580597,0.008544928394258022,0.00030517601408064365,0.9999396800994873,-0.13281254470348358,-0.19921882450580597,9.683597564697266,0.0,0.0,0.0
4450,-0.009765632450580597,0.008544928394258022,0.00030517601408064365,0.9999396800994873,-0.13281254470348358,-0.19921882450580597,9.683597564697266,0.0,0.0,0.0
4459,-0.009765632450580597,0.008544928394258022,0.00030517601408064365,0.9999396800994873,-0.13281254470348358,-0.19921882450580597,9.683597564697266,0.0,0.0,0.0
4468,-0.009765632450580597,0.008544928394258022,0.00030517601408064365,0.9999396800994873,-0.14453129470348358,-0.19921882450580597,9.679691314697266,0.0,0.0,0.0
4477,-0.009765632450580597,0.008544928394258022,0.00030517601408064365,0.9999396800994873,-0.11328128725290298,-0.19140632450580597,9.734378814697266,0.0,0.0,0.0
4486,-0.009765632450580597,0.008544928394258022,0.00030517601408064365,0.9999396800994873,-0.10546878725290298,-0.19921882450580597,9.683597564697266,0.0,0.0,0.0
4498,-0.009765632450580597,0.008544928394258022,0.00030517601408064365,0.9999396800994873,-0.13281254470348358,-0.18359380960464478,9.679691314697266,0.0,0.0,0.0
4507,-0.009765632450580597,0.008544928394258022,0.00030517601408064365,0.9999396800994873,-0.12500004470348358,-0.19140632450580597,9.691410064697266,0.0,0.0,0.0
4516,-0.009765632450580597,0.008544928394258022,0.00030517601408064365,0.9999396800994873,-0.11328128725290298,-0.19921882450580597,9.714847564697266,0.0,0.0,0.0
4529,-0.009765632450580597,0.008544928394258022,0.00030517601408064365,0.9999396800994873,-0.14453129470348358,-0.19921882450580597,9.726566314697266,0.0,0.0,0.0
4537,-0.009765632450580597,0.008544928394258022,0.00030517601408064365,0.9999396800994873,-0.16406255960464478,-0.19140632450580597,9.683597564697266,0.0,0.0,0.0
4546,-0.009765632450580597,0.008544928394258022,0.00030517601408064365,0.9999396800994873,-0.14453129470348358,-0.21093757450580597,9.687503814697266,0.0,0.0,0.0
4552,-0.009765632450580597,0.008544928394258022,0.00030517601408064365,0.9999396800994873,-0.12500004470348358,-0.19921882450580597,9.722660064697266,0.0,0.0,0.0
4561,-0.009765632450580597,0.008544928394258022,0.00030517601408064365,0.9999396800994873,-0.12500004470348358,-0.19921882450580597,9.722660064697266,0.0,0.0,0.0
4570,-0.009765632450580597,0.008544928394258022,0.00030517601408064365,0.9999396800994873,-0.12500004470348358,-0.19921882450580597,9.722660064697266,0.0,0.0,0.0
4590,-0.009765632450580597,0.008544928394258022,0.00030517601408064365,0.9999396800994873,-0.12500004470348358,-0.19921882450580597,9.722660064697266,0.0,0.0,0.0
4620,-0.009765632450580597,0.008544928394258022,0.00030517601408064365,0.9999396800994873,-0.12500004470348358,-0.19921882450580597,9.722660064697266,0.0,0.0,0.0
4639,-0.009765632450580597,0.008544928394258022,0.00030517601408064365,0.9999396800994873,-0.12500004470348358,-0.19921882450580597,9.722660064697266,0.0,0.0,0.0
4658,-0.009765632450580597,0.008544928394258022,0.00030517601408064365,0.9999396800994873,-0.12500004470348358,-0.19921882450580597,9.722660064697266,0.0,0.0,0.0
4667,-0.009765632450580597,0.008544928394258022,0.00030517601408064365,0.9999396800994873,-0.12500004470348358,-0.19921882450580597,9.722660064697266,0.0,0.0,0.0
4676,-0.009765632450580597,0.008544928394258022,0.00030517601408064365,0.9999396800994873,-0.14453129470348358,-0.19921882450580597,9.687503814697266,0.0,0.0,0.0
4685,-0.009765632450580597,0.008544928394258022,0.00030517601408064365,0.9999396800994873,-0.11328128725290298,-0.17187505960464478,9.679691314697266,0.0,0.0,0.0
4695,-0.009765632450580597,0.008544928394258022,0.00030517601408064365,0.9999396800994873,-0.12500004470348358,-0.19921882450580597,9.722660064697266,0.0,0.0,0.0
4701,-0.009765632450580597,0.008544928394258022,0.00030517601408064365,0.9999396800994873,-0.14453129470348358,-0.19140632450580597,9.714847564697266,0.0,0.0,0.0
4710,-0.009765632450580597,0.008544928394258022,0.00030517601408064365,0.9999396800994873,-0.14453129470348358,-0.19140632450580597,9.714847564697266,0.0,0.0,0.0
4719,-0.009765632450580597,0.008544928394258022,0.00030517601408064365,0.9999396800994873,-0.14453129470348358,-0.19140632450580597,9.714847564697266,0.0,0.0,0.0
4728,-0.009765632450580597,0.008544928394258022,0.00030517601408064365,0.9999396800994873,-0.14453129470348358,-0.19140632450580597,9.714847564697266,0.0,0.0,0.0
4738,-0.009765632450580597,0.008544928394258022,0.00030517601408064365,0.9999396800994873,-0.14453129470348358,-0.19140632450580597,9.714847564697266,0.0,0.0,0.0
4747,-0.009765632450580597,0.008544928394258022,0.00030517601408064365,0.9999396800994873,-0.15234380960464478,-0.19140632450580597,9.687503814697266,0.0,0.0,0.0
4756,-0.009765632450580597,0.008544928394258022,0.00030517601408064365,0.9999396800994873,-0.12500004470348358,-0.18359380960464478,9.714847564697266,0.0,0.0,0.0
4765,-0.009765632450580597,0.008544928394258022,0.00030517601408064365,0.9999396800994873,-0.12500004470348358,-0.18359380960464478,9.714847564697266,0.0,0.0,0.0
4773,-0.009765632450580597,0.008544928394258022,0.00030517601408064365,0.9999396800994873,-0.12500004470348358,-0.18359380960464478,9.714847564697266,0.0,0.0,0.0
4781,-0.009765632450580597,0.008544928394258022,0.00030517601408064365,0.9999396800994873,-0.14453129470348358,-0.18359380960464478,9.718753814697266,0.0,0.0,0.0
4789,-0.009765632450580597,0.008544928394258022,0.00030517601408064365,0.9999396800994873,-0.14453129470348358,-0.18359380960464478,9.718753814697266,0.0,0.0,0.0
4798,-0.009765632450580597,0.008544928394258022,0.00030517601408064365,0.9999396800994873,-0.14453129470348358,-0.18359380960464478,9.718753814697266,0.0,0.0,0.0
4807,-0.009765632450580597,0.008544928394258022,0.00030517601408064365,0.9999396800994873,-0.14453129470348358,-0.18359380960464478,9.718753814697266,0.0,0.0,0.0
4816,-0.009765632450580597,0.008544928394258022,0.00030517601408064365,0.9999396800994873,-0.14453129470348358,-0.18359380960464478,9.691410064697266,0.0,0.0,0.0
4827,-0.009765632450580597,0.008544928394258022,0.00030517601408064365,0.9999396800994873,-0.12500004470348358,-0.18359380960464478,9.738285064697266,0.0,0.0,0.0
4836,-0.009765632450580597,0.008544928394258022,0.00030517601408064365,0.9999396800994873,-0.12500004470348358,-0.18359380960464478,9.738285064697266,0.0,0.0,0.0
4855,-0.009765632450580597,0.008544928394258022,0.00030517601408064365,0.9999396800994873,-0.15234380960464478,-0.19140632450580597,9.722660064697266,0.0,0.0,0.0
4866,-0.009765632450580597,0.008544928394258022,0.00030517601408064365,0.9999396800994873,-0.15234380960464478,-0.19140632450580597,9.722660064697266,0.0,0.0,0.0
4874,-0.009765632450580597,0.008544928394258022,0.00030517601408064365,0.9999396800994873,-0.15234380960464478,-0.19140632450580597,9.722660064697266,0.0,0.0,0.0
4883,-0.009765632450580597,0.008544928394258022,0.00030517601408064365,0.9999396800994873,-0.13281254470348358,-0.19921882450580597,9.703128814697266,0.0,0.0,0.0
4908,-0.009765632450580597,0.008544928394258022,0.00030517601408064365,0.9999396800994873,-0.13281254470348358,-0.19921882450580597,9.703128814697266,0.0,0.0,0.0
4916,-0.009765632450580597,0.008544928394258022,0.00030517601408064365,0.9999396800994873,-0.13281254470348358,-0.19921882450580597,9.703128814697266,0.0,0.0,0.0
4926,-0.009765632450580597,0.008544928394258022,0.00030517601408064365,0.9999396800994873,-0.11328128725290298,-0.21093757450580597,9.718753814697266,0.0,0.0,0.0
4945,-0.009765632450580597,0.008544928394258022,0.00030517601408064365,0.9999396800994873,-0.11328128725290298,-0.21093757450580597,9.718753814697266,0.0,0.0,0.0
4955,-0.009765632450580597,0.008544928394258022,0.00030517601408064365,0.9999396800994873,-0.11328128725290298,-0.19140632450580597,9.675785064697266,0.0,0.0,0.0
4964,-0.009765632450580597,0.008544928394258022,0.00030517601408064365,0.9999396800994873,-0.12500004470348358,-0.19140632450580597,9.691410064697266,0.0,0.0,0.0
4973,-0.009765632450580597,0.008544928394258022,0.00030517601408064365,0.9999396800994873,-0.12500004470348358,-0.19140632450580597,9.691410064697266,0.0,0.0,0.0
4982,-0.009765632450580597,0.008544928394258022,0.00030517601408064365,0.9999396800994873,-0.12500004470348358,-0.19140632450580597,9.691410064697266,0.0,0.0,0.0
4992,-0.009765632450580597,0.008544928394258022,0.00030517601408064365,0.9999396800994873,-0.14453129470348358,-0.18359380960464478,9.691410064697266,0.0,0.0,0.0
5003,-0.009765632450580597,0.008544928394258022,0.00030517601408064365,0.9999396800994873,-0.15234380960464478,-0.19140632450580597,9.687503814697266,0.0,0.0,0.0
5012,-0.009765632450580597,0.008544928394258022,0.00030517601408064365,0.9999396800994873,-0.15234380960464478,-0.19140632450580597,9.687503814697266,0.0,0.0,0.0
5021,-0.009765632450580597,0.008544928394258022,0.00030517601408064365,0.9999396800994873,-0.15234380960464478,-0.19140632450580597,9.687503814697266,0.0,0.0,0.0
5033,-0.009765632450580597,0.008544928394258022,0.00030517601408064365,0.9999396800994873,-0.11328128725290298,-0.21093757450580597,9.738285064697266,0.0,0.0,0.0
5043,-0.009765632450580597,0.008544928394258022,0.00030517601408064365,0.9999396800994873,-0.11328128725290298,-0.21093757450580597,9.738285064697266,0.0,0.0,0.0
5050,-0.009765632450580597,0.008544928394258022,0.00030517601408064365,0.9999396800994873,-0.11328128725290298,-0.21093757450580597,9.738285064697266,0.0,0.0,0.0
5057,-0.009765632450580597,0.008544928394258022,0.00030517601408064365,0.9999396800994873,-0.13281254470348358,-0.18359380960464478,9.707035064697266,0.0,0.0,0.0
5066,-0.009765632450580597,0.008544928394258022,0.00030517601408064365,0.9999396800994873,-0.13281254470348358,-0.18359380960464478,9.707035064697266,0.0,0.0,0.0
5075,-0.009765632450580597,0.008544928394258022,0.00030517601408064365,0.9999396800994873,-0.13281254470348358,-0.18359380960464478,9.707035064697266,0.0,0.0,0.0
5104,-0.009765632450580597,0.008544928394258022,0.00030517601408064365,0.9999396800994873,-0.13281254470348358,-0.18359380960464478,9.707035064697266,0.0,0.0,0.0
5125,-0.009765632450580597,0.008544928394258022,0.00030517601408064365,0.9999396800994873,-0.13281254470348358,-0.18359380960464478,9.707035064697266,0.0,0.0,0.0
5143,-0.009765632450580597,0.008544928394258022,0.00030517601408064365,0.9999396800994873,-0.13281254470348358,-0.18359380960464478,9.707035064697266,0.0,0.0,0.0
5152,-0.009765632450580597,0.008544928394258022,0.00030517601408064365,0.9999396800994873,-0.13281254470348358,-0.18359380960464478,9.707035064697266,0.0,0.0,0.0
5161,-0.009765632450580597,0.008544928394258022,0.00030517601408064365,0.9999396800994873,-0.15234380960464478,-0.19140632450580597,9.722660064697266,0.0,0.0,0.0
5171,-0.009765632450580597,0.008544928394258022,0.00030517601408064365,0.9999396800994873,-0.12500004470348358,-0.17187505960464478,9.718753814697266,0.0,0.0,0.0
5179,-0.009765632450580597,0.008544928394258022,0.00030517601408064365,0.9999396800994873,-0.12500004470348358,-0.19140632450580597,9.703128814697266,0.0,0.0,0.0
5191,-0.009765632450580597,0.008544928394258022,0.00030517601408064365,0.9999396800994873,-0.13281254470348358,-0.19921882450580597,9.738285064697266,0.0,0.0,0.0
5200,-0.009765632450580597,0.008544928394258022,0.00030517601408064365,0.9999396800994873,-0.12500004470348358,-0.18359380960464478,9.703128814697266,0.0,0.0,0.0
5209,-0.009765632450580597,0.008544928394258022,0.00030517601408064365,0.9999396800994873,-0.12500004470348358,-0.17187505960464478,9.683597564697266,0.0,0.0,0.0
5221,-0.009765632450580597,0.008544928394258022,0.00030517601408064365,0.9999396800994873,-0.15234380960464478,-0.18359380960464478,9.707035064697266,0.0,0.0,0.0
5230,-0.009765632450580597,0.008544928394258022,0.00030517601408064365,0.9999396800994873,-0.13281254470348358,-0.19921882450580597,9.718753814697266,0.0,0.0,0.0
5239,-0.009765632450580597,0.008544928394258022,0.00030517601408064365,0.9999396800994873,-0.13281254470348358,-0.19140632450580597,9.707035064697266,0.0,0.0,0.0
5251,-0.009765632450580597,0.008544928394258022,0.00030517601408064365,0.9999396800994873,-0.14453129470348358,-0.18359380960464478,9.730472564697266,0.0,0.0,0.0
5260,-0.009765632450580597,0.008544928394258022,0.00030517601408064365,0.9999396800994873,-0.14453129470348358,-0.18359380960464478,9.730472564697266,0.0,0.0,0.0
5269,-0.009765632450580597,0.008544928394258022,0.00030517601408064365,0.9999396800994873,-0.17187505960464478,-0.18359380960464478,9.714847564697266,0.0,0.0,0.0
5278,-0.009765632450580597,0.008544928394258022,0.00030517601408064365,0.9999396800994873,-0.15234380960464478,-0.18359380960464478,9.687503814697266,0.0,0.0,0.0
5284,-0.009765632450580597,0.008544928394258022,0.00030517601408064365,0.9999396800994873,-0.14453129470348358,-0.19921882450580597,9.722660064697266,0.0,0.0,0.0
5293,-0.009765632450580597,0.008544928394258022,0.00030517601408064365,0.9999396800994873,-0.14453129470348358,-0.19921882450580597,9.722660064697266,0.0,0.0,0.0
5302,-0.009765632450580597,0.008544928394258022,0.00030517601408064365,0.9999396800994873,-0.14453129470348358,-0.19140632450580597,9.714847564697266,0.0,0.0,0.0
5312,-0.009765632450580597,0.008544928394258022,0.00030517601408064365,0.9999396800994873,-0.11328128725290298,-0.21093757450580597,9.714847564697266,0.0,0.0,0.0
5332,-0.009765632450580597,0.008544928394258022,0.00030517601408064365,0.9999396800994873,-0.11328128725290298,-0.21093757450580597,9.714847564697266,0.0,0.0,0.0
5351,-0.009765632450580597,0.008544928394258022,0.00030517601408064365,0.9999396800994873,-0.11328128725290298,-0.21093757450580597,9.714847564697266,0.0,0.0,0.0
5370,-0.009765632450580597,0.008544928394258022,0.00030517601408064365,0.9999396800994873,-0.15234380960464478,-0.19921882450580597,9.703128814697266,0.0,0.0,0.0
5379,-0.009765632450580597,0.008544928394258022,0.00030517601408064365,0.9999396800994873,-0.15234380960464478,-0.19921882450580597,9.703128814697266,0.0,0.0,0.0
5388,-0.009765632450580597,0.008544928394258022,0.00030517601408064365,0.9999396800994873,-0.11328128725290298,-0.19140632450580597,9.710941314697266,0.0,0.0,0.0
5397,-0.009765632450580597,0.008544928394258022,0.00030517601408064365,0.9999396800994873,-0.12500004470348358,-0.19140632450580597,9.683597564697266,0.0,0.0,0.0
5404,-0.009765632450580597,0.008544928394258022,0.00030517601408064365,0.9999396800994873,-0.12500004470348358,-0.18359380960464478,9.703128814697266,0.0,0.0,0.0
5412,-0.009765632450580597,0.008544928394258022,0.00030517601408064365,0.9999396800994873,-0.12500004470348358,-0.18359380960464478,9.703128814697266,0.0,0.0,0.0
5422,-0.009765632450580597,0.008544928394258022,0.00030517601408064365,0.9999396800994873,-0.12500004470348358,-0.18359380960464478,9.703128814697266,0.0,0.0,0.0
5431,-0.009765632450580597,0.008544928394258022,0.00030517601408064365,0.9999396800994873,-0.12500004470348358,-0.18359380960464478,9.703128814697266,0.0,0.0,0.0
5440,-0.009765632450580597,0.008544928394258022,0.00030517601408064365,0.9999396800994873,-0.11328128725290298,-0.21093757450580597,9.703128814697266,0.0,0.0,0.0
5450,-0.009765632450580597,0.008544928394258022,0.00030517601408064365,0.9999396800994873,-0.14453129470348358,-0.19921882450580597,9.750003814697266,0.0,0.0,0.0
5459,-0.009765632450580597,0.008544928394258022,0.00030517601408064365,0.9999396800994873,-0.14453129470348358,-0.19921882450580597,9.750003814697266,0.0,0.0,0.0
5470,-0.009765632450580597,0.008544928394258022,0.00030517601408064365,0.9999396800994873,-0.14453129470348358,-0.19921882450580597,9.750003814697266,0.0,0.0,0.0
5478,-0.009765632450580597,0.008544928394258022,0.00030517601408064365,0.9999396800994873,-0.10546878725290298,-0.19140632450580597,9.707035064697266,0.0,0.0,0.0
5487,-0.009765632450580597,0.008544928394258022,0.00030517601408064365,0.9999396800994873,-0.13281254470348358,-0.19140632450580597,9.687503814697266,0.0,0.0,0.0
5496,-0.009765632450580597,0.008544928394258022,0.00030517601408064365,0.9999396800994873,-0.15234380960464478,-0.19921882450580597,9.703128814697266,0.0,0.0,0.0
5509,-0.009765632450580597,0.008544928394258022,0.00030517601408064365,0.9999396800994873,-0.11328128725290298,-0.18359380960464478,9.707035064697266,0.0,0.0,0.0
5517,-0.009765632450580597,0.008544928394258022,0.00030517601408064365,0.9999396800994873,-0.13281254470348358,-0.19140632450580597,9.652347564697266,0.0,0.0,0.0
5526,-0.009765632450580597,0.008544928394258022,0.00030517601408064365,0.9999396800994873,-0.13281254470348358,-0.19921882450580597,9.714847564697266,0.0,0.0,0.0
5538,-0.009765632450580597,0.008544928394258022,0.00030517601408064365,0.9999396800994873,-0.11328128725290298,-0.19921882450580597,9.703128814697266,0.0,0.0,0.0
5547,-0.009765632450580597,0.008544928394258022,0.00030517601408064365,0.9999396800994873,-0.13281254470348358,-0.21093757450580597,9.738285064697266,0.0,0.0,0.0
5556,-0.009765632450580597,0.008544928394258022,0.00030517601408064365,0.9999396800994873,-0.12500004470348358,-0.19140632450580597,9.714847564697266,0.0,0.0,0.0
5562,-0.009765632450580597,0.008544928394258022,0.00030517601408064365,0.9999396800994873,-0.13281254470348358,-0.19140632450580597,9.687503814697266,0.0,0.0,0.0
5571,-0.009765632450580597,0.008544928394258022,0.00030517601408064365,0.9999396800994873,-0.13281254470348358,-0.19140632450580597,9.687503814697266,0.0,0.0,0.0
5579,-0.009765632450580597,0.008544928394258022,0.00030517601408064365,0.9999396800994873,-0.12500004470348358,-0.21093757450580597,9.710941314697266,0.0,0.0,0.0
5600,-0.009765632450580597,0.008544928394258022,0.00030517601408064365,0.9999396800994873,-0.12500004470348358,-0.21093757450580597,9.710941314697266,0.0,0.0,0.0
5629,-0.009765632450580597,0.008544928394258022,0.00030517601408064365,0.9999396800994873,-0.12500004470348358,-0.21093757450580597,9.710941314697266,0.0,0.0,0.0
5649,-0.009765632450580597,0.008544928394258022,0.00030517601408064365,0.9999396800994873,-0.12500004470348358,-0.21093757450580597,9.710941314697266,0.0,0.0,0.0
5668,-0.009765632450580597,0.008544928394258022,0.00030517601408064365,0.9999396800994873,-0.12500004470348358,-0.21093757450580597,9.710941314697266,0.0,0.0,0.0
5678,-0.009765632450580597,0.008544928394258022,0.00030517601408064365,0.9999396800994873,-0.12500004470348358,-0.21093757450580597,9.710941314697266,0.0,0.0,0.0
5686,-0.009765632450580597,0.008544928394258022,0.00030517601408064365,0.9999396800994873,-0.12500004470348358,-0.19140632450580597,9.718753814697266,0.0,0.0,0.0
5695,-0.009765632450580597,0.008544928394258022,0.00030517601408064365,0.9999396800994873,-0.12500004470348358,-0.18359380960464478,9.703128814697266,0.0,0.0,0.0
5704,-0.009765632450580597,0.008544928394258022,0.00030517601408064365,0.9999396800994873,-0.12500004470348358,-0.19140632450580597,9.691410064697266,0.0,0.0,0.0
5716,-0.009765632450580597,0.008544928394258022,0.00030517601408064365,0.9999396800994873,-0.14453129470348358,-0.19921882450580597,9.675785064697266,0.0,0.0,0.0
5725,-0.009765632450580597,0.008544928394258022,0.00030517601408064365,0.9999396800994873,-0.14453129470348358,-0.19140632450580597,9.703128814697266,0.0,0.0,0.0
5734,-0.009765632450580597,0.008544928394258022,0.00030517601408064365,0.9999396800994873,-0.12500004470348358,-0.19921882450580597,9.726566314697266,0.0,0.0,0.0
5746,-0.009765632450580597,0.008544928394258022,0.00030517601408064365,0.9999396800994873,-0.14453129470348358,-0.18359380960464478,9.691410064697266,0.0,0.0,0.0
5756,-0.009765632450580597,0.008544928394258022,0.00030517601408064365,0.9999396800994873,-0.16406255960464478,-0.18359380960464478,9.683597564697266,0.0,0.0,0.0
5766,-0.009765632450580597,0.008544928394258022,0.00030517601408064365,0.9999396800994873,-0.12500004470348358,-0.17187505960464478,9.671878814697266,0.0,0.0,0.0
5775,-0.009765632450580597,0.008544928394258022,0.00030517601408064365,0.9999396800994873,-0.12500004470348358,-0.17187505960464478,9.671878814697266,0.0,0.0,0.0
5783,-0.009765632450580597,0.008544928394258022,0.00030517601408064365,0.9999396800994873,-0.12500004470348358,-0.17187505960464478,9.671878814697266,0.0,0.0,0.0
5790,-0.009765632450580597,0.008544928394258022,0.00030517601408064365,0.9999396800994873,-0.14453129470348358,-0.21093757450580597,9.710941314697266,0.0,0.0,0.0
5798,-0.009765632450580597,0.008544928394258022,0.00030517601408064365,0.9999396800994873,-0.14453129470348358,-0.21093757450580597,9.710941314697266,0.0,0.0,0.0
5808,-0.009765632450580597,0.008544928394258022,0.00030517601408064365,0.9999396800994873,-0.14453129470348358,-0.21093757450580597,9.710941314697266,0.0,0.0,0.0
5817,-0.009765632450580597,0.008544928394258022,0.00030517601408064365,0.9999396800994873,-0.14453129470348358,-0.21093757450580597,9.710941314697266,0.0,0.0,0.0
5826,-0.009765632450580597,0.008544928394258022,0.00030517601408064365,0.9999396800994873,-0.11328128725290298,-0.19921882450580597,9.738285064697266,0.0,0.0,0.0
5836,-0.009765632450580597,0.008544928394258022,0.00030517601408064365,0.9999396800994873,-0.15234380960464478,-0.18359380960464478,9.675785064697266,0.0,0.0,0.0
5847,-0.009765632450580597,0.008544928394258022,0.00030517601408064365,0.9999396800994873,-0.15234380960464478,-0.18359380960464478,9.675785064697266,0.0,0.0,0.0
5856,-0.009765632450580597,0.008544928394258022,0.00030517601408064365,0.9999396800994873,-0.15234380960464478,-0.18359380960464478,9.675785064697266,0.0,0.0,0.0
5864,-0.009765632450580597,0.008544928394258022,0.00030517601408064365,0.9999396800994873,-0.12500004470348358,-0.19140632450580597,9.730472564697266,0.0,0.0,0.0
5874,-0.009765632450580597,0.008544928394258022,0.00030517601408064365,0.9999396800994873,-0.15234380960464478,-0.19921882450580597,9.703128814697266,0.0,0.0,0.0
5883,-0.009765632450580597,0.008544928394258022,0.00030517601408064365,0.9999396800994873,-0.15234380960464478,-0.19921882450580597,9.703128814697266,0.0,0.0,0.0
5892,-0.009765632450580597,0.008544928394258022,0.00030517601408064365,0.9999396800994873,-0.14453129470348358,-0.19921882450580597,9.734378814697266,0.0,0.0,0.0
5905,-0.009765632450580597,0.008544928394258022,0.00030517601408064365,0.9999396800994873,-0.12500004470348358,-0.21093757450580597,9.722660064697266,0.0,0.0,0.0
5913,-0.009765632450580597,0.008544928394258022,0.00030517601408064365,0.9999396800994873,-0.12500004470348358,-0.21093757450580597,9.722660064697266,0.0,0.0,0.0
5921,-0.009765632450580597,0.008544928394258022,0.00030517601408064365,0.9999396800994873,-0.12500004470348358,-0.21093757450580597,9.722660064697266,0.0,0.0,0.0
5928,-0.009765632450580597,0.008544928394258022,0.00030517601408064365,0.9999396800994873,-0.14453129470348358,-0.19140632450580597,9.730472564697266,0.0,0.0,0.0
5938,-0.009765632450580597,0.008544928394258022,0.00030517601408064365,0.9999396800994873,-0.14453129470348358,-0.19140632450580597,9.730472564697266,0.0,0.0,0.0
5946,-0.009765632450580597,0.008544928394258022,0.00030517601408064365,0.9999396800994873,-0.14453129470348358,-0.19140632450580597,9.730472564697266,0.0,0.0,0.0
5976,-0.009765632450580597,0.008544928394258022,0.00030517601408064365,0.9999396800994873,-0.14453129470348358,-0.19140632450580597,9.730472564697266,0.0,0.0,0.0
5996,-0.009765632450580597,0.008544928394258022,0.00030517601408064365,0.9999396800994873,-0.14453129470348358,-0.19140632450580597,9.730472564697266,0.0,0.0,0.0
6014,-0.009765632450580597,0.008544928394258022,0.00030517601408064365,0.9999396800994873,-0.14453129470348358,-0.19140632450580597,9.730472564697266,0.0,0.0,0.0
6024,-0.009765632450580597,0.008544928394258022,0.00030517601408064365,0.9999396800994873,-0.14453129470348358,-0.19140632450580597,9.730472564697266,0.0,0.0,0.0
6033,-0.009765632450580597,0.008544928394258022,0.00030517601408064365,0.9999396800994873,-0.14453129470348358,-0.18359380960464478,9.714847564697266,0.0,0.0,0.0
6041,-0.009765632450580597,0.008544928394258022,0.00030517601408064365,0.9999396800994873,-0.14453129470348358,-0.21093757450580597,9.710941314697266,0.0,0.0,0.0
6050,-0.009765632450580597,0.008544928394258022,0.00030517601408064365,0.9999396800994873,-0.14453129470348358,-0.19921882450580597,9.734378814697266,0.0,0.0,0.0
6056,-0.009765632450580597,0.008544928394258022,0.00030517601408064365,0.9999396800994873,-0.16406255960464478,-0.17187505960464478,9.691410064697266,0.0,0.0,0.0
6066,-0.009765632450580597,0.008544928394258022,0.00030517601408064365,0.9999396800994873,-0.16406255960464478,-0.17187505960464478,9.691410064697266,0.0,0.0,0.0
6075,-0.009765632450580597,0.008544928394258022,0.00030517601408064365,0.9999396800994873,-0.16406255960464478,-0.19921882450580597,9.734378814697266,0.0,0.0,0.0
6084,-0.009765632450580597,0.008544928394258022,0.00030517601408064365,0.9999396800994873,-0.16406255960464478,-0.19921882450580597,9.734378814697266,0.0,0.0,0.0
6093,-0.009765632450580597,0.008544928394258022,0.00030517601408064365,0.9999396800994873,-0.16406255960464478,-0.19921882450580597,9.734378814697266,0.0,0.0,0.0
6103,-0.009765632450580597,0.008544928394258022,0.00030517601408064365,0.9999396800994873,-0.12500004470348358,-0.19140632450580597,9.703128814697266,0.0,0.0,0.0
6113,-0.009765632450580597,0.008544928394258022,0.00030517601408064365,0.9999396800994873,-0.11328128725290298,-0.19140632450580597,9.675785064697266,0.0,0.0,0.0
6122,-0.009765632450580597,0.008544928394258022,0.00030517601408064365,0.9999396800994873,-0.11328128725290298,-0.19140632450580597,9.675785064697266,0.0,0.0,0.0
6130,-0.009765632450580597,0.008544928394258022,0.00030517601408064365,0.9999396800994873,-0.11328128725290298,-0.19140632450580597,9.675785064697266,0.0,0.0,0.0
6139,-0.009765632450580597,0.008544928394258022,0.00030517601408064365,0.9999396800994873,-0.13281254470348358,-0.17187505960464478,9.687503814697266,0.0,0.0,0.0
6146,-0.009765632450580597,0.008544928394258022,0.00030517601408064365,0.9999396800994873,-0.11328128725290298,-0.18359380960464478,9.707035064697266,0.0,0.0,0.0
6155,-0.009765632450580597,0.008544928394258022,0.00030517601408064365,0.9999396800994873,-0.11328128725290298,-0.18359380960464478,9.707035064697266,0.0,0.0,0.0
6163,-0.009765632450580597,0.008544928394258022,0.00030517601408064365,0.9999396800994873,-0.11328128725290298,-0.18359380960464478,9.707035064697266,0.0,0.0,0.0
6172,-0.009765632450580597,0.008544928394258022,0.00030517601408064365,0.9999396800994873,-0.11328128725290298,-0.18359380960464478,9.710941314697266,0.0,0.0,0.0
6183,-0.009765632450580597,0.008544928394258022,0.00030517601408064365,0.9999396800994873,-0.13281254470348358,-0.17187505960464478,9.722660064697266,0.0,0.0,0.0
6193,-0.009765632450580597,0.008544928394258022,0.00030517601408064365,0.9999396800994873,-0.13281254470348358,-0.17187505960464478,9.722660064697266,0.0,0.0,0.0
6202,-0.009765632450580597,0.008544928394258022,0.00030517601408064365,0.9999396800994873,-0.13281254470348358,-0.17187505960464478,9.722660064697266,0.0,0.0,0.0
6211,-0.009765632450580597,0.008544928394258022,0.00030517601408064365,0.9999396800994873,-0.14453129470348358,-0.21875007450580597,9.718753814697266,0.0,0.0,0.0
6219,-0.009765632450580597,0.008544928394258022,0.00030517601408064365,0.9999396800994873,-0.12500004470348358,-0.19921882450580597,9.722660064697266,0.0,0.0,0.0
6228,-0.009765632450580597,0.008544928394258022,0.00030517601408064365,0.9999396800994873,-0.13281254470348358,-0.19921882450580597,9.683597564697266,0.0,0.0,0.0
6236,-0.009765632450580597,0.008544928394258022,0.00030517601408064365,0.9999396800994873,-0.14453129470348358,-0.21093757450580597,9.722660064697266,0.0,0.0,0.0
6245,-0.009765632450580597,0.008544928394258022,0.00030517601408064365,0.9999396800994873,-0.14453129470348358,-0.21093757450580597,9.722660064697266,0.0,0.0,0.0
6253,-0.009765632450580597,0.008544928394258022,0.00030517601408064365,0.9999396800994873,-0.14453129470348358,-0.21093757450580597,9.722660064697266,0.0,0.0,0.0
6283,-0.009765632450580597,0.008544928394258022,0.00030517601408064365,0.9999396800994873,-0.14453129470348358,-0.21093757450580597,9.722660064697266,0.0,0.0,0.0
6312,-0.009765632450580597,0.008544928394258022,0.00030517601408064365,0.9999396800994873,-0.13281254470348358,-0.18359380960464478,9.734378814697266,0.0,0.0,0.0
6331,-0.009765632450580597,0.008544928394258022,0.00030517601408064365,0.9999396800994873,-0.13281254470348358,-0.18359380960464478,9.734378814697266,0.0,0.0,0.0
6340,-0.009765632450580597,0.008544928394258022,0.00030517601408064365,0.9999396800994873,-0.13281254470348358,-0.18359380960464478,9.734378814697266,0.0,0.0,0.0
6349,-0.009765632450580597,0.008544928394258022,0.00030517601408064365,0.9999396800994873,-0.15234380960464478,-0.19921882450580597,9.683597564697266,0.0,0.0,0.0
6355,-0.009765632450580597,0.008544928394258022,0.00030517601408064365,0.9999396800994873,-0.12500004470348358,-0.19921882450580597,9.722660064697266,0.0,0.0,0.0
6365,-0.009765632450580597,0.008544928394258022,0.00030517601408064365,0.9999396800994873,-0.12500004470348358,-0.19921882450580597,9.722660064697266,0.0,0.0,0.0
6373,-0.009765632450580597,0.008544928394258022,0.00030517601408064365,0.9999396800994873,-0.12500004470348358,-0.19921882450580597,9.722660064697266,0.0,0.0,0.0
6383,-0.009765632450580597,0.008544928394258022,0.00030517601408064365,0.9999396800994873,-0.13281254470348358,-0.19921882450580597,9.703128814697266,0.0,0.0,0.0
6392,-0.009765632450580597,0.008544928394258022,0.00030517601408064365,0.9999396800994873,-0.13281254470348358,-0.19921882450580597,9.703128814697266,0.0,0.0,0.0
6421,-0.009765632450580597,0.008544928394258022,0.00030517601408064365,0.9999396800994873,-0.13281254470348358,-0.19921882450580597,9.703128814697266,0.0,0.0,0.0
6451,-0.009765632450580597,0.008544928394258022,0.00030517601408064365,0.9999396800994873,-0.13281254470348358,-0.19140632450580597,9.710941314697266,0.0,0.0,0.0
6470,-0.009765632450580597,0.008544928394258022,0.00030517601408064365,0.9999396800994873,-0.13281254470348358,-0.19140632450580597,9.710941314697266,0.0,0.0,0.0
6479,-0.009765632450580597,0.008544928394258022,0.00030517601408064365,0.9999396800994873,-0.13281254470348358,-0.19140632450580597,9.710941314697266,0.0,0.0,0.0
6488,-0.009765632450580597,0.008544928394258022,0.00030517601408064365,0.9999396800994873,-0.15234380960464478,-0.19140632450580597,9.726566314697266,0.0,0.0,0.0
6497,-0.009765632450580597,0.008544928394258022,0.00030517601408064365,0.9999396800994873,-0.16406255960464478,-0.17187505960464478,9.718753814697266,0.0,0.0,0.0
6506,-0.009765632450580597,0.008544928394258022,0.00030517601408064365,0.9999396800994873,-0.15234380960464478,-0.18359380960464478,9.687503814697266,0.0,0.0,0.0
6519,-0.009765632450580597,0.008544928394258022,0.00030517601408064365,0.9999396800994873,-0.13281254470348358,-0.18359380960464478,9.722660064697266,0.0,0.0,0.0
6529,-0.009765632450580597,0.008544928394258022,0.00030517601408064365,0.9999396800994873,-0.13281254470348358,-0.18359380960464478,9.722660064697266,0.0,0.0,0.0
6538,-0.009765632450580597,0.008544928394258022,0.00030517601408064365,0.9999396800994873,-0.13281254470348358,-0.18359380960464478,9.722660064697266,0.0,0.0,0.0
6547,-0.009765632450580597,0.008544928394258022,0.00030517601408064365,0.9999396800994873,-0.13281254470348358,-0.18359380960464478,9.722660064697266,0.0,0.0,0.0
6556,-0.009765632450580597,0.008544928394258022,0.00030517601408064365,0.9999396800994873,-0.12500004470348358,-0.19140632450580597,9.718753814697266,0.0,0.0,0.0
6565,-0.009765632450580597,0.008544928394258022,0.00030517601408064365,0.9999396800994873,-0.13281254470348358,-0.19140632450580597,9.726566314697266,0.0,0.0,0.0
6572,-0.009765632450580597,0.008544928394258022,0.00030517601408064365,0.9999396800994873,-0.11328128725290298,-0.19140632450580597,9.726566314697266,0.0,0.0,0.0
6580,-0.009765632450580597,0.008544928394258022,0.00030517601408064365,0.9999396800994873,-0.11328128725290298,-0.19140632450580597,9.726566314697266,0.0,0.0,0.0
6589,-0.009765632450580597,0.008544928394258022,0.00030517601408064365,0.9999396800994873,-0.09765628725290298,-0.19921882450580597,9.707035064697266,0.0,0.0,0.0
6599,-0.009765632450580597,0.008544928394258022,0.00030517601408064365,0.9999396800994873,-0.13281254470348358,-0.19140632450580597,9.726566314697266,0.0,0.0,0.0
6620,-0.009765632450580597,0.008544928394258022,0.00030517601408064365,0.9999396800994873,-0.13281254470348358,-0.19140632450580597,9.726566314697266,0.0,0.0,0.0
6638,-0.009765632450580597,0.008544928394258022,0.00030517601408064365,0.9999396800994873,-0.13281254470348358,-0.19140632450580597,9.726566314697266,0.0,0.0,0.0
6647,-0.009765632450580597,0.008544928394258022,0.00030517601408064365,0.9999396800994873,-0.13281254470348358,-0.19140632450580597,9.726566314697266,0.0,0.0,0.0
6657,-0.009765632450580597,0.008544928394258022,0.00030517601408064365,0.9999396800994873,-0.13281254470348358,-0.19140632450580597,9.726566314697266,0.0,0.0,0.0
6666,-0.009765632450580597,0.008544928394258022,0.00030517601408064365,0.9999396800994873,-0.12500004470348358,-0.19921882450580597,9.710941314697266,0.0,0.0,0.0
6674,-0.009765632450580597,0.008544928394258022,0.00030517601408064365,0.9999396800994873,-0.12500004470348358,-0.19140632450580597,9.703128814697266,0.0,0.0,0.0
6686,-0.009765632450580597,0.008544928394258022,0.00030517601408064365,0.9999396800994873,-0.15234380960464478,-0.18359380960464478,9.722660064697266,0.0,0.0,0.0
6695,-0.009765632450580597,0.008544928394258022,0.00030517601408064365,0.9999396800994873,-0.13281254470348358,-0.18359380960464478,9.726566314697266,0.0,0.0,0.0
6704,-0.009765632450580597,0.008544928394258022,0.00030517601408064365,0.9999396800994873,-0.13281254470348358,-0.18359380960464478,9.722660064697266,0.0,0.0,0.0
6716,-0.009765632450580597,0.008544928394258022,0.00030517601408064365,0.9999396800994873,-0.14453129470348358,-0.19921882450580597,9.726566314697266,0.0,0.0,0.0
6725,-0.009765632450580597,0.008544928394258022,0.00030517601408064365,0.9999396800994873,-0.10546878725290298,-0.19921882450580597,9.718753814697266,0.0,0.0,0.0
6734,-0.009765632450580597,0.008544928394258022,0.00030517601408064365,0.9999396800994873,-0.15234380960464478,-0.19140632450580597,9.710941314697266,0.0,0.0,0.0
6744,-0.009765632450580597,0.008544928394258022,0.00030517601408064365,0.9999396800994873,-0.12500004470348358,-0.18359380960464478,9.703128814697266,0.0,0.0,0.0
6750,-0.009765632450580597,0.008544928394258022,0.00030517601408064365,0.9999396800994873,-0.13281254470348358,-0.17187505960464478,9.726566314697266,0.0,0.0,0.0
6758,-0.009765632450580597,0.008544928394258022,0.00030517601408064365,0.9999396800994873,-0.13281254470348358,-0.17187505960464478,9.726566314697266,0.0,0.0,0.0
6768,-0.009765632450580597,0.008544928394258022,0.00030517601408064365,0.9999396800994873,-0.14453129470348358,-0.19140632450580597,9.714847564697266,0.0,0.0,0.0
6777,-0.009765632450580597,0.008544928394258022,0.00030517601408064365,0.9999396800994873,-0.14453129470348358,-0.19140632450580597,9.714847564697266,0.0,0.0,0.0
6787,-0.009765632450580597,0.008544928394258022,0.00030517601408064365,0.9999396800994873,-0.14453129470348358,-0.19140632450580597,9.714847564697266,0.0,0.0,0.0
6796,-0.009765632450580597,0.008544928394258022,0.00030517601408064365,0.9999396800994873,-0.11328128725290298,-0.19140632450580597,9.722660064697266,0.0,0.0,0.0
6805,-0.009765632450580597,0.008544928394258022,0.00030517601408064365,0.9999396800994873,-0.12500004470348358,-0.19921882450580597,9.722660064697266,0.0,0.0,0.0
6813,-0.009765632450580597,0.008544928394258022,0.00030517601408064365,0.9999396800994873,-0.11328128725290298,-0.17187505960464478,9.679691314697266,0.0,0.0,0.0
6822,-0.009765632450580597,0.008544928394258022,0.00030517601408064365,0.9999396800994873,-0.13281254470348358,-0.19140632450580597,9.707035064697266,0.0,0.0,0.0
6830,-0.009765632450580597,0.008544928394258022,0.00030517601408064365,0.9999396800994873,-0.12500004470348358,-0.21093757450580597,9.722660064697266,0.0,0.0,0.0
6839,-0.009765632450580597,0.008544928394258022,0.00030517601408064365,0.9999396800994873,-0.12500004470348358,-0.21093757450580597,9.722660064697266,0.0,0.0,0.0
6847,-0.009765632450580597,0.008544928394258022,0.00030517601408064365,0.9999396800994873,-0.12500004470348358,-0.21093757450580597,9.722660064697266,0.0,0.0,0.0
6877,-0.009765632450580597,0.008544928394258022,0.00030517601408064365,0.9999396800994873,-0.12500004470348358,-0.21093757450580597,9.722660064697266,0.0,0.0,0.0
6906,-0.009765632450580597,0.008544928394258022,0.00030517601408064365,0.9999396800994873,-0.12500004470348358,-0.21093757450580597,9.722660064697266,0.0,0.0,0.0
6925,-0.009765632450580597,0.008544928394258022,0.00030517601408064365,0.9999396800994873,-0.12500004470348358,-0.21093757450580597,9.722660064697266,0.0,0.0,0.0
6934,-0.009765632450580597,0.008544928394258022,0.00030517601408064365,0.9999396800994873,-0.12500004470348358,-0.21093757450580597,9.722660064697266,0.0,0.0,0.0
6943,-0.009765632450580597,0.008544928394258022,0.00030517601408064365,0.9999396800994873,-0.11328128725290298,-0.19140632450580597,9.710941314697266,0.0,0.0,0.0
6952,-0.009765632450580597,0.008544928394258022,0.00030517601408064365,0.9999396800994873,-0.12500004470348358,-0.21093757450580597,9.722660064697266,0.0,0.0,0.0
6962,-0.009765632450580597,0.008544928394258022,0.00030517601408064365,0.9999396800994873,-0.12500004470348358,-0.19921882450580597,9.710941314697266,0.0,0.0,0.0
6968,-0.009765632450580597,0.008544928394258022,0.00030517601408064365,0.9999396800994873,-0.14453129470348358,-0.19921882450580597,9.734378814697266,0.0,0.0,0.0
6977,-0.009765632450580597,0.008544928394258022,0.00030517601408064365,0.9999396800994873,-0.14453129470348358,-0.19921882450580597,9.734378814697266,0.0,0.0,0.0
6986,-0.009765632450580597,0.008544928394258022,0.00030517601408064365,0.9999396800994873,-0.14453129470348358,-0.19921882450580597,9.734378814697266,0.0,0.0,0.0
6994,-0.009765632450580597,0.008544928394258022,0.00030517601408064365,0.9999396800994873,-0.14453129470348358,-0.19921882450580597,9.734378814697266,0.0,0.0,0.0
7005,-0.009765632450580597,0.008544928394258022,0.00030517601408064365,0.9999396800994873,-0.14453129470348358,-0.19921882450580597,9.734378814697266,0.0,0.0,0.0
7014,-0.009765632450580597,0.008544928394258022,0.00030517601408064365,0.9999396800994873,-0.13281254470348358,-0.21093757450580597,9.703128814697266,0.0,0.0,0.0
7023,-0.009765632450580597,0.008544928394258022,0.00030517601408064365,0.9999396800994873,-0.13281254470348358,-0.21093757450580597,9.738285064697266,0.0,0.0,0.0
7032,-0.009765632450580597,0.008544928394258022,0.00030517601408064365,0.9999396800994873,-0.13281254470348358,-0.21093757450580597,9.738285064697266,0.0,0.0,0.0
7042,-0.009765632450580597,0.008544928394258022,0.00030517601408064365,0.9999396800994873,-0.12500004470348358,-0.19140632450580597,9.730472564697266,0.0,0.0,0.0
7051,-0.009765632450580597,0.008544928394258022,0.00030517601408064365,0.9999396800994873,-0.12500004470348358,-0.19140632450580597,9.714847564697266,0.0,0.0,0.0
7063,-0.009765632450580597,0.008544928394258022,0.00030517601408064365,0.9999396800994873,-0.12500004470348358,-0.19921882450580597,9.707035064697266,0.0,0.0,0.0
7071,-0.009765632450580597,0.008544928394258022,0.00030517601408064365,0.9999396800994873,-0.12500004470348358,-0.19921882450580597,9.707035064697266,0.0,0.0,0.0
7080,-0.009765632450580597,0.008544928394258022,0.00030517601408064365,0.9999396800994873,-0.10546878725290298,-0.19140632450580597,9.710941314697266,0.0,0.0,0.0
7093,-0.009765632450580597,0.008544928394258022,0.00030517601408064365,0.9999396800994873,-0.14453129470348358,-0.19921882450580597,9.687503814697266,0.0,0.0,0.0
7101,-0.009765632450580597,0.008544928394258022,0.00030517601408064365,0.9999396800994873,-0.14453129470348358,-0.19921882450580597,9.687503814697266,0.0,0.0,0.0
7109,-0.009765632450580597,0.008544928394258022,0.00030517601408064365,0.9999396800994873,-0.13281254470348358,-0.19140632450580597,9.679691314697266,0.0,0.0,0.0
7117,-0.010009773075580597,0.006835942156612873,0.0003662111994344741,0.9999396800994873,-0.13281254470348358,-0.19140632450580597,9.679691314697266,0.0,0.0,0.0
7127,-0.010009773075580597,0.006835942156612873,0.0003662111994344741,0.9999396800994873,-0.13281254470348358,-0.19140632450580597,9.679691314697266,0.0,0.0,0.0
7135,-0.010009773075580597,0.006835942156612873,0.0003662111994344741,0.9999396800994873,-0.13281254470348358,-0.19140632450580597,9.679691314697266,0.0,0.0,0.0
7144,-0.010009773075580597,0.006835942156612873,0.0003662111994344741,0.9999396800994873,-0.13281254470348358,-0.19140632450580597,9.679691314697266,0.0,0.0,0.0
7164,-0.010009773075580597,0.006835942156612873,0.0003662111994344741,0.9999396800994873,-0.13281254470348358,-0.19140632450580597,9.679691314697266,0.0,0.0,0.0
7193,-0.010009773075580597,0.006835942156612873,0.0003662111994344741,0.9999396800994873,-0.13281254470348358,-0.19140632450580597,9.679691314697266,0.0,0.0,0.0
7223,-0.010009773075580597,0.006835942156612873,0.0003662111994344741,0.9999396800994873,-0.13281254470348358,-0.19140632450580597,9.679691314697266,0.0,0.0,0.0
7232,-0.010009773075580597,0.006835942156612873,0.0003662111994344741,0.9999396800994873,-0.13281254470348358,-0.19140632450580597,9.679691314697266,0.0,0.0,0.0
7241,-0.010009773075580597,0.006835942156612873,0.0003662111994344741,0.9999396800994873,-0.13281254470348358,-0.19140632450580597,9.679691314697266,0.0,0.0,0.0
7250,-0.010009773075580597,0.006835942156612873,0.0003662111994344741,0.9999396800994873,-0.13281254470348358,-0.19140632450580597,9.707035064697266,0.0,0.0,0.0
7260,-0.010009773075580597,0.006835942156612873,0.0003662111994344741,0.9999396800994873,-0.14453129470348358,-0.19921882450580597,9.710941314697266,0.0,0.0,0.0
7268,-0.010009773075580597,0.006835942156612873,0.0003662111994344741,0.9999396800994873,-0.11328128725290298,-0.17187505960464478,9.710941314697266,0.0,0.0,0.0
7280,-0.010009773075580597,0.006835942156612873,0.0003662111994344741,0.9999396800994873,-0.14453129470348358,-0.19921882450580597,9.710941314697266,0.0,0.0,0.0
7289,-0.010009773075580597,0.006835942156612873,0.0003662111994344741,0.9999396800994873,-0.10546878725290298,-0.19921882450580597,9.703128814697266,0.0,0.0,0.0
7298,-0.010009773075580597,0.006835942156612873,0.0003662111994344741,0.9999396800994873,-0.13281254470348358,-0.19921882450580597,9.703128814697266,0.0,0.0,0.0
7310,-0.010009773075580597,0.006835942156612873,0.0003662111994344741,0.9999396800994873,-0.11328128725290298,-0.19140632450580597,9.734378814697266,0.0,0.0,0.0
7319,-0.010009773075580597,0.006835942156612873,0.0003662111994344741,0.9999396800994873,-0.13281254470348358,-0.19921882450580597,9.703128814697266,0.0,0.0,0.0
7328,-0.010009773075580597,0.006835942156612873,0.0003662111994344741,0.9999396800994873,-0.13281254470348358,-0.19140632450580597,9.734378814697266,0.0,0.0,0.0
7341,-0.010009773075580597,0.006835942156612873,0.0003662111994344741,0.9999396800994873,-0.15234380960464478,-0.19921882450580597,9.753910064697266,0.0,0.0,0.0
7348,-0.010009773075580597,0.006835942156612873,0.0003662111994344741,0.9999396800994873,-0.15234380960464478,-0.19921882450580597,9.753910064697266,0.0,0.0,0.0
7358,-0.010009773075580597,0.006835942156612873,0.0003662111994344741,0.9999396800994873,-0.15234380960464478,-0.18359380960464478,9.710941314697266,0.0,0.0,0.0
7367,-0.010009773075580597,0.006835942156612873,0.0003662111994344741,0.9999396800994873,-0.13281254470348358,-0.19140632450580597,9.710941314697266,0.0,0.0,0.0
7379,-0.010009773075580597,0.006835942156612873,0.0003662111994344741,0.9999396800994873,-0.12500004470348358,-0.19140632450580597,9.718753814697266,0.0,0.0,0.0
7388,-0.010009773075580597,0.006835942156612873,0.0003662111994344741,0.9999396800994873,-0.14453129470348358,-0.19140632450580597,9.738285064697266,0.0,0.0,0.0
7397,-0.010009773075580597,0.006835942156612873,0.0003662111994344741,0.9999396800994873,-0.12500004470348358,-0.21093757450580597,9.687503814697266,0.0,0.0,0.0
7409,-0.010009773075580597,0.006835942156612873,0.0003662111994344741,0.9999396800994873,-0.12500004470348358,-0.19140632450580597,9.683597564697266,0.0,0.0,0.0
7418,-0.010009773075580597,0.006835942156612873,0.0003662111994344741,0.9999396800994873,-0.12500004470348358,-0.19140632450580597,9.683597564697266,0.0,0.0,0.0
7427,-0.010009773075580597,0.006835942156612873,0.0003662111994344741,0.9999396800994873,-0.14453129470348358,-0.21093757450580597,9.726566314697266,0.0,0.0,0.0
7437,-0.010009773075580597,0.006835942156612873,0.0003662111994344741,0.9999396800994873,-0.11328128725290298,-0.18359380960464478,9.667972564697266,0.0,0.0,0.0
7442,-0.010009773075580597,0.006835942156612873,0.0003662111994344741,0.9999396800994873,-0.13281254470348358,-0.19921882450580597,9.714847564697266,0.0,0.0,0.0
7451,-0.010009773075580597,0.006835942156612873,0.0003662111994344741,0.9999396800994873,-0.13281254470348358,-0.19921882450580597,9.714847564697266,0.0,0.0,0.0
7460,-0.010009773075580597,0.006835942156612873,0.0003662111994344741,0.9999396800994873,-0.14453129470348358,-0.18359380960464478,9.714847564697266,0.0,0.0,0.0
7471,-0.010009773075580597,0.006835942156612873,0.0003662111994344741,0.9999396800994873,-0.11328128725290298,-0.18359380960464478,9.722660064697266,0.0,0.0,0.0
7490,-0.010009773075580597,0.006835942156612873,0.0003662111994344741,0.9999396800994873,-0.11328128725290298,-0.18359380960464478,9.722660064697266,0.0,0.0,0.0
7510,-0.010009773075580597,0.006835942156612873,0.0003662111994344741,0.9999396800994873,-0.11328128725290298,-0.18359380960464478,9.722660064697266,0.0,0.0,0.0
7519,-0.010009773075580597,0.006835942156612873,0.0003662111994344741,0.9999396800994873,-0.11328128725290298,-0.18359380960464478,9.722660064697266,0.0,0.0,0.0
7528,-0.010009773075580597,0.006835942156612873,0.0003662111994344741,0.9999396800994873,-0.12500004470348358,-0.19921882450580597,9.722660064697266,0.0,0.0,0.0
7536,-0.010009773075580597,0.006835942156612873,0.0003662111994344741,0.9999396800994873,-0.13281254470348358,-0.19140632450580597,9.687503814697266,0.0,0.0,0.0
7543,-0.010009773075580597,0.006835942156612873,0.0003662111994344741,0.9999396800994873,-0.13281254470348358,-0.19140632450580597,9.710941314697266,0.0,0.0,0.0
7552,-0.010009773075580597,0.006652836687862873,0.0003662111994344741,0.9999396800994873,-0.13281254470348358,-0.19140632450580597,9.710941314697266,0.0,0.0,0.0
7560,-0.010009773075580597,0.006652836687862873,0.0003662111994344741,0.9999396800994873,-0.13281254470348358,-0.19140632450580597,9.710941314697266,0.0,0.0,0.0
7570,-0.010009773075580597,0.006652836687862873,0.0003662111994344741,0.9999396800994873,-0.11328128725290298,-0.18359380960464478,9.726566314697266,0.0,0.0,0.0
7579,-0.010009773075580597,0.006652836687862873,0.0003662111994344741,0.9999396800994873,-0.11328128725290298,-0.18359380960464478,9.726566314697266,0.0,0.0,0.0
7588,-0.010009773075580597,0.006652836687862873,0.0003662111994344741,0.9999396800994873,-0.11328128725290298,-0.18359380960464478,9.726566314697266,0.0,0.0,0.0
7598,-0.010009773075580597,0.006652836687862873,0.0003662111994344741,0.9999396800994873,-0.13281254470348358,-0.19921882450580597,9.738285064697266,0.0,0.0,0.0
7608,-0.010009773075580597,0.006652836687862873,0.0003662111994344741,0.9999396800994873,-0.13281254470348358,-0.18359380960464478,9.750003814697266,0.0,0.0,0.0
7617,-0.010009773075580597,0.006652836687862873,0.0003662111994344741,0.9999396800994873,-0.13281254470348358,-0.18359380960464478,9.750003814697266,0.0,0.0,0.0
7624,-0.010009773075580597,0.006652836687862873,0.0003662111994344741,0.9999396800994873,-0.13281254470348358,-0.18359380960464478,9.750003814697266,0.0,0.0,0.0
7633,-0.010009773075580597,0.006652836687862873,0.0003662111994344741,0.9999396800994873,-0.11328128725290298,-0.17187505960464478,9.707035064697266,0.0,0.0,0.0
7648,-0.010009773075580597,0.006652836687862873,0.0003662111994344741,0.9999396800994873,-0.11328128725290298,-0.17187505960464478,9.707035064697266,0.0,0.0,0.0
7656,-0.010009773075580597,0.006652836687862873,0.0003662111994344741,0.9999396800994873,-0.11328128725290298,-0.17187505960464478,9.707035064697266,0.0,0.0,0.0
7665,-0.010009773075580597,0.006652836687862873,0.0003662111994344741,0.9999396800994873,-0.13281254470348358,-0.21093757450580597,9.714847564697266,0.0,0.0,0.0
7674,-0.010009773075580597,0.006652836687862873,0.0003662111994344741,0.9999396800994873,-0.12500004470348358,-0.19921882450580597,9.687503814697266,0.0,0.0,0.0
7687,-0.010009773075580597,0.006652836687862873,0.0003662111994344741,0.9999396800994873,-0.13281254470348358,-0.21093757450580597,9.738285064697266,0.0,0.0,0.0
7695,-0.010009773075580597,0.006652836687862873,0.0003662111994344741,0.9999396800994873,-0.13281254470348358,-0.21093757450580597,9.738285064697266,0.0,0.0,0.0
7704,-0.010009773075580597,0.006652836687862873,0.0003662111994344741,0.9999396800994873,-0.12500004470348358,-0.17187505960464478,9.714847564697266,0.0,0.0,0.0
7716,-0.010009773075580597,0.006652836687862873,0.0003662111994344741,0.9999396800994873,-0.13281254470348358,-0.19921882450580597,9.691410064697266,0.0,0.0,0.0
7725,-0.010009773075580597,0.006652836687862873,0.0003662111994344741,0.9999396800994873,-0.13281254470348358,-0.19921882450580597,9.691410064697266,0.0,0.0,0.0
7734,-0.010009773075580597,0.006652836687862873,0.0003662111994344741,0.9999396800994873,-0.13281254470348358,-0.18359380960464478,9.722660064697266,0.0,0.0,0.0
7740,-0.010009773075580597,0.006652836687862873,0.0003662111994344741,0.9999396800994873,-0.12500004470348358,-0.18359380960464478,9.714847564697266,0.0,0.0,0.0
7749,-0.010009773075580597,0.006652836687862873,0.0003662111994344741,0.9999396800994873,-0.12500004470348358,-0.18359380960464478,9.714847564697266,0.0,0.0,0.0
7757,-0.010009773075580597,0.006652836687862873,0.0003662111994344741,0.9999396800994873,-0.12500004470348358,-0.18359380960464478,9.714847564697266,0.0,0.0,0.0
7778,-0.010009773075580597,0.006652836687862873,0.0003662111994344741,0.9999396800994873,-0.10546878725290298,-0.19921882450580597,9.730472564697266,0.0,0.0,0.0
7796,-0.010009773075580597,0.006652836687862873,0.0003662111994344741,0.9999396800994873,-0.10546878725290298,-0.19921882450580597,9.730472564697266,0.0,0.0,0.0
7805,-0.010009773075580597,0.006652836687862873,0.0003662111994344741,0.9999396800994873,-0.12500004470348358,-0.18359380960464478,9.714847564697266,0.0,0.0,0.0
7815,-0.010009773075580597,0.006652836687862873,0.0003662111994344741,0.9999396800994873,-0.15234380960464478,-0.18359380960464478,9.710941314697266,0.0,0.0,0.0
7824,-0.010009773075580597,0.006652836687862873,0.0003662111994344741,0.9999396800994873,-0.12500004470348358,-0.19921882450580597,9.734378814697266,0.0,0.0,0.0
7832,-0.010009773075580597,0.006652836687862873,0.0003662111994344741,0.9999396800994873,-0.13281254470348358,-0.19140632450580597,9.707035064697266,0.0,0.0,0.0
7839,-0.010009773075580597,0.006652836687862873,0.0003662111994344741,0.9999396800994873,-0.12500004470348358,-0.19140632450580597,9.730472564697266,0.0,0.0,0.0
7848,-0.010009773075580597,0.006652836687862873,0.0003662111994344741,0.9999396800994873,-0.12500004470348358,-0.19140632450580597,9.730472564697266,0.0,0.0,0.0
7857,-0.010009773075580597,0.006652836687862873,0.0003662111994344741,0.9999396800994873,-0.12500004470348358,-0.19140632450580597,9.730472564697266,0.0,0.0,0.0
7866,-0.010009773075580597,0.006652836687862873,0.0003662111994344741,0.9999396800994873,-0.12500004470348358,-0.19140632450580597,9.730472564697266,0.0,0.0,0.0
7875,-0.010009773075580597,0.006652836687862873,0.0003662111994344741,0.9999396800994873,-0.14453129470348358,-0.19140632450580597,9.718753814697266,0.0,0.0,0.0
7886,-0.010009773075580597,0.006652836687862873,0.0003662111994344741,0.9999396800994873,-0.11328128725290298,-0.19921882450580597,9.718753814697266,0.0,0.0,0.0
7896,-0.010009773075580597,0.006652836687862873,0.0003662111994344741,0.9999396800994873,-0.11328128725290298,-0.19921882450580597,9.718753814697266,0.0,0.0,0.0
7905,-0.010009773075580597,0.006652836687862873,0.0003662111994344741,0.9999396800994873,-0.11328128725290298,-0.19921882450580597,9.718753814697266,0.0,0.0,0.0
7914,-0.010009773075580597,0.006652836687862873,0.0003662111994344741,0.9999396800994873,-0.14453129470348358,-0.19140632450580597,9.691410064697266,0.0,0.0,0.0
7922,-0.010009773075580597,0.006652836687862873,0.0003662111994344741,0.9999396800994873,-0.14453129470348358,-0.17187505960464478,9.714847564697266,0.0,0.0,0.0
7931,-0.010009773075580597,0.006652836687862873,0.0003662111994344741,0.9999396800994873,-0.12500004470348358,-0.18359380960464478,9.714847564697266,0.0,0.0,0.0
7945,-0.010009773075580597,0.006652836687862873,0.0003662111994344741,0.9999396800994873,-0.12500004470348358,-0.18359380960464478,9.714847564697266,0.0,0.0,0.0
7955,-0.010009773075580597,0.006652836687862873,0.0003662111994344741,0.9999396800994873,-0.12500004470348358,-0.18359380960464478,9.714847564697266,0.0,0.0,0.0
7964,-0.010009773075580597,0.006652836687862873,0.0003662111994344741,0.9999396800994873,-0.12500004470348358,-0.18359380960464478,9.714847564697266,0.0,0.0,0.0
7973,-0.010009773075580597,0.006652836687862873,0.0003662111994344741,0.9999396800994873,-0.12500004470348358,-0.18359380960464478,9.714847564697266,0.0,0.0,0.0
7982,-0.010009773075580597,0.006652836687862873,0.0003662111994344741,0.9999396800994873,-0.11328128725290298,-0.18359380960464478,9.722660064697266,0.0,0.0,0.0
7991,-0.010009773075580597,0.006652836687862873,0.0003662111994344741,0.9999396800994873,-0.12500004470348358,-0.21093757450580597,9.722660064697266,0.0,0.0,0.0
8003,-0.010009773075580597,0.006652836687862873,0.0003662111994344741,0.9999396800994873,-0.11328128725290298,-0.19921882450580597,9.718753814697266,0.0,0.0,0.0
8012,-0.010009773075580597,0.006652836687862873,0.0003662111994344741,0.9999396800994873,-0.11328128725290298,-0.19921882450580597,9.738285064697266,0.0,0.0,0.0
8020,-0.010009773075580597,0.006652836687862873,0.0003662111994344741,0.9999396800994873,-0.11328128725290298,-0.19921882450580597,9.753910064697266,0.0,0.0,0.0
8033,-0.010009773075580597,0.006652836687862873,0.0003662111994344741,0.9999396800994873,-0.11328128725290298,-0.19921882450580597,9.691410064697266,0.0,0.0,0.0
8042,-0.010009773075580597,0.006652836687862873,0.0003662111994344741,0.9999396800994873,-0.11328128725290298,-0.19921882450580597,9.691410064697266,0.0,0.0,0.0
8051,-0.010009773075580597,0.006652836687862873,0.0003662111994344741,0.9999396800994873,-0.13281254470348358,-0.19921882450580597,9.730472564697266,0.0,0.0,0.0
8056,-0.010009773075580597,0.006652836687862873,0.0003662111994344741,0.9999396800994873,-0.13281254470348358,-0.18359380960464478,9.726566314697266,0.0,0.0,0.0
8066,-0.010009773075580597,0.006652836687862873,0.0003662111994344741,0.9999396800994873,-0.13281254470348358,-0.18359380960464478,9.726566314697266,0.0,0.0,0.0
8075,-0.010009773075580597,0.006652836687862873,0.0003662111994344741,0.9999396800994873,-0.13281254470348358,-0.18359380960464478,9.726566314697266,0.0,0.0,0.0
8094,-0.010009773075580597,0.006652836687862873,0.0003662111994344741,0.9999396800994873,-0.14453129470348358,-0.19140632450580597,9.730472564697266,0.0,0.0,0.0
8114,-0.010009773075580597,0.006652836687862873,0.0003662111994344741,0.9999396800994873,-0.14453129470348358,-0.19140632450580597,9.730472564697266,0.0,0.0,0.0
8133,-0.010009773075580597,0.006652836687862873,0.0003662111994344741,0.9999396800994873,-0.14453129470348358,-0.19140632450580597,9.730472564697266,0.0,0.0,0.0
8142,-0.010009773075580597,0.006652836687862873,0.0003662111994344741,0.9999396800994873,-0.14453129470348358,-0.19140632450580597,9.730472564697266,0.0,0.0,0.0
8152,-0.010009773075580597,0.006652836687862873,0.0003662111994344741,0.9999396800994873,-0.16406255960464478,-0.19921882450580597,9.726566314697266,0.0,0.0,0.0
8160,-0.010009773075580597,0.006652836687862873,0.0003662111994344741,0.9999396800994873,-0.15234380960464478,-0.18359380960464478,9.734378814697266,0.0,0.0,0.0
8169,-0.010009773075580597,0.006652836687862873,0.0003662111994344741,0.9999396800994873,-0.12500004470348358,-0.19921882450580597,9.726566314697266,0.0,0.0,0.0
8181,-0.010009773075580597,0.006652836687862873,0.0003662111994344741,0.9999396800994873,-0.15234380960464478,-0.18359380960464478,9.687503814697266,0.0,0.0,0.0
8189,-0.010009773075580597,0.006652836687862873,0.0003662111994344741,0.9999396800994873,-0.12500004470348358,-0.21093757450580597,9.726566314697266,0.0,0.0,0.0
8199,-0.010009773075580597,0.006652836687862873,0.0003662111994344741,0.9999396800994873,-0.11328128725290298,-0.19140632450580597,9.710941314697266,0.0,0.0,0.0
8211,-0.010009773075580597,0.006652836687862873,0.0003662111994344741,0.9999396800994873,-0.12500004470348358,-0.17187505960464478,9.683597564697266,0.0,0.0,0.0
8220,-0.010009773075580597,0.006652836687862873,0.0003662111994344741,0.9999396800994873,-0.12500004470348358,-0.18359380960464478,9.703128814697266,0.0,0.0,0.0
8228,-0.010009773075580597,0.006652836687862873,0.0003662111994344741,0.9999396800994873,-0.12500004470348358,-0.19921882450580597,9.707035064697266,0.0,0.0,0.0
8241,-0.010009773075580597,0.006652836687862873,0.0003662111994344741,0.9999396800994873,-0.13281254470348358,-0.19921882450580597,9.730472564697266,0.0,0.0,0.0
8250,-0.010009773075580597,0.006652836687862873,0.0003662111994344741,0.9999396800994873,-0.13281254470348358,-0.19921882450580597,9.730472564697266,0.0,0.0,0.0
8259,-0.010009773075580597,0.006652836687862873,0.0003662111994344741,0.9999396800994873,-0.12500004470348358,-0.21093757450580597,9.707035064697266,0.0,0.0,0.0
8268,-0.010009773075580597,0.006652836687862873,0.0003662111994344741,0.9999396800994873,-0.14453129470348358,-0.19140632450580597,9.703128814697266,0.0,0.0,0.0
8273,-0.010009773075580597,0.006652836687862873,0.0003662111994344741,0.9999396800994873,-0.13281254470348358,-0.19140632450580597,9.722660064697266,0.0,0.0,0.0
8283,-0.010009773075580597,0.006652836687862873,0.0003662111994344741,0.9999396800994873,-0.13281254470348358,-0.19140632450580597,9.722660064697266,0.0,0.0,0.0
8292,-0.010009773075580597,0.006652836687862873,0.0003662111994344741,0.9999396800994873,-0.13281254470348358,-0.19140632450580597,9.722660064697266,0.0,0.0,0.0
8302,-0.010009773075580597,0.006652836687862873,0.0003662111994344741,0.9999396800994873,-0.14453129470348358,-0.18359380960464478,9.703128814697266,0.0,0.0,0.0
8322,-0.010009773075580597,0.006652836687862873,0.0003662111994344741,0.9999396800994873,-0.14453129470348358,-0.18359380960464478,9.703128814697266,0.0,0.0,0.0
8341,-0.010009773075580597,0.006652836687862873,0.0003662111994344741,0.9999396800994873,-0.10546878725290298,-0.19140632450580597,9.710941314697266,0.0,0.0,0.0
8350,-0.010009773075580597,0.006652836687862873,0.0003662111994344741,0.9999396800994873,-0.10546878725290298,-0.19140632450580597,9.710941314697266,0.0,0.0,0.0
8359,-0.010009773075580597,0.006652836687862873,0.0003662111994344741,0.9999396800994873,-0.10546878725290298,-0.19140632450580597,9.710941314697266,0.0,0.0,0.0
8368,-0.010009773075580597,0.006652836687862873,0.0003662111994344741,0.9999396800994873,-0.12500004470348358,-0.21093757450580597,9.679691314697266,0.0,0.0,0.0
8377,-0.010009773075580597,0.006652836687862873,0.0003662111994344741,0.9999396800994873,-0.09765628725290298,-0.21093757450580597,9.726566314697266,0.0,0.0,0.0
8389,-0.010009773075580597,0.006652836687862873,0.0003662111994344741,0.9999396800994873,-0.10546878725290298,-0.19140632450580597,9.707035064697266,0.0,0.0,0.0
8398,-0.010009773075580597,0.006652836687862873,0.0003662111994344741,0.9999396800994873,-0.12500004470348358,-0.18359380960464478,9.691410064697266,0.0,0.0,0.0
8407,-0.010009773075580597,0.006652836687862873,0.0003662111994344741,0.9999396800994873,-0.11328128725290298,-0.16406255960464478,9.710941314697266,0.0,0.0,0.0
8419,-0.010009773075580597,0.006652836687862873,0.0003662111994344741,0.9999396800994873,-0.11328128725290298,-0.19921882450580597,9.730472564697266,0.0,0.0,0.0
8428,-0.010009773075580597,0.006652836687862873,0.0003662111994344741,0.9999396800994873,-0.11328128725290298,-0.19921882450580597,9.730472564697266,0.0,0.0,0.0
8437,-0.010009773075580597,0.006652836687862873,0.0003662111994344741,0.9999396800994873,-0.10546878725290298,-0.21093757450580597,9.730472564697266,0.0,0.0,0.0
8446,-0.010009773075580597,0.006652836687862873,0.0003662111994344741,0.9999396800994873,-0.13281254470348358,-0.19921882450580597,9.753910064697266,0.0,0.0,0.0
8453,-0.010009773075580597,0.006652836687862873,0.0003662111994344741,0.9999396800994873,-0.13281254470348358,-0.18359380960464478,9.734378814697266,0.0,0.0,0.0
8461,-0.010009773075580597,0.006652836687862873,0.0003662111994344741,0.9999396800994873,-0.13281254470348358,-0.18359380960464478,9.734378814697266,0.0,0.0,0.0
8471,-0.010009773075580597,0.006652836687862873,0.0003662111994344741,0.9999396800994873,-0.11328128725290298,-0.19140632450580597,9.710941314697266,0.0,0.0,0.0
8480,-0.010009773075580597,0.006652836687862873,0.0003662111994344741,0.9999396800994873,-0.11328128725290298,-0.19140632450580597,9.710941314697266,0.0,0.0,0.0
8489,-0.010009773075580597,0.006652836687862873,0.0003662111994344741,0.9999396800994873,-0.11328128725290298,-0.19140632450580597,9.710941314697266,0.0,0.0,0.0
8499,-0.010009773075580597,0.006652836687862873,0.0003662111994344741,0.9999396800994873,-0.11328128725290298,-0.19140632450580597,9.710941314697266,0.0,0.0,0.0
8508,-0.010009773075580597,0.006652836687862873,0.0003662111994344741,0.9999396800994873,-0.13281254470348358,-0.19140632450580597,9.687503814697266,0.0,0.0,0.0
8516,-0.010009773075580597,0.006652836687862873,0.0003662111994344741,0.9999396800994873,-0.12500004470348358,-0.19140632450580597,9.738285064697266,0.0,0.0,0.0
8525,-0.010009773075580597,0.006652836687862873,0.0003662111994344741,0.9999396800994873,-0.13281254470348358,-0.18359380960464478,9.667972564697266,0.0,0.0,0.0
8532,-0.010009773075580597,0.006652836687862873,0.0003662111994344741,0.9999396800994873,-0.13281254470348358,-0.19140632450580597,9.761722564697266,0.0,0.0,0.0
8542,-0.010009773075580597,0.006652836687862873,0.0003662111994344741,0.9999396800994873,-0.13281254470348358,-0.19140632450580597,9.761722564697266,0.0,0.0,0.0
8550,-0.010009773075580597,0.006652836687862873,0.0003662111994344741,0.9999396800994873,-0.13281254470348358,-0.19140632450580597,9.761722564697266,0.0,0.0,0.0
8580,-0.010009773075580597,0.006652836687862873,0.0003662111994344741,0.9999396800994873,-0.13281254470348358,-0.19140632450580597,9.761722564697266,0.0,0.0,0.0
8628,-0.010009773075580597,0.006652836687862873,0.0003662111994344741,0.9999396800994873,-0.13281254470348358,-0.19140632450580597,9.761722564697266,0.0,0.0,0.0
8637,-0.010009773075580597,0.006652836687862873,0.0003662111994344741,0.9999396800994873,-0.13281254470348358,-0.19140632450580597,9.761722564697266,0.0,0.0,0.0
8646,-0.010009773075580597,0.006652836687862873,0.0003662111994344741,0.9999396800994873,-0.13281254470348358,-0.18359380960464478,9.707035064697266,0.0,0.0,0.0
8656,-0.010009773075580597,0.006652836687862873,0.0003662111994344741,0.9999396800994873,-0.12500004470348358,-0.18359380960464478,9.730472564697266,0.0,0.0,0.0
8666,-0.010009773075580597,0.006652836687862873,0.0003662111994344741,0.9999396800994873,-0.12500004470348358,-0.18359380960464478,9.730472564697266,0.0,0.0,0.0
8674,-0.010009773075580597,0.006652836687862873,0.0003662111994344741,0.9999396800994873,-0.13281254470348358,-0.18359380960464478,9.687503814697266,0.0,0.0,0.0
8686,-0.010009773075580597,0.006652836687862873,0.0003662111994344741,0.9999396800994873,-0.12500004470348358,-0.21875007450580597,9.703128814697266,0.0,0.0,0.0
8695,-0.010009773075580597,0.006652836687862873,0.0003662111994344741,0.9999396800994873,-0.12500004470348358,-0.21875007450580597,9.703128814697266,0.0,0.0,0.0
8705,-0.010009773075580597,0.006652836687862873,0.0003662111994344741,0.9999396800994873,-0.12500004470348358,-0.21875007450580597,9.703128814697266,0.0,0.0,0.0
8714,-0.010009773075580597,0.006652836687862873,0.0003662111994344741,0.9999396800994873,-0.11328128725290298,-0.19921882450580597,9.738285064697266,0.0,0.0,0.0
8720,-0.010009773075580597,0.006652836687862873,0.0003662111994344741,0.9999396800994873,-0.13281254470348358,-0.18359380960464478,9.679691314697266,0.0,0.0,0.0
8728,-0.010009773075580597,0.006652836687862873,0.0003662111994344741,0.9999396800994873,-0.13281254470348358,-0.18359380960464478,9.679691314697266,0.0,0.0,0.0
8737,-0.010009773075580597,0.006652836687862873,0.0003662111994344741,0.9999396800994873,-0.13281254470348358,-0.18359380960464478,9.679691314697266,0.0,0.0,0.0
8747,-0.010009773075580597,0.006652836687862873,0.0003662111994344741,0.9999396800994873,-0.12500004470348358,-0.17187505960464478,9.718753814697266,0.0,0.0,0.0
8757,-0.010009773075580597,0.006652836687862873,0.0003662111994344741,0.9999396800994873,-0.11328128725290298,-0.18359380960464478,9.710941314697266,0.0,0.0,0.0
8767,-0.010009773075580597,0.006652836687862873,0.0003662111994344741,0.9999396800994873,-0.11328128725290298,-0.18359380960464478,9.710941314697266,0.0,0.0,0.0
8776,-0.010009773075580597,0.006652836687862873,0.0003662111994344741,0.9999396800994873,-0.11328128725290298,-0.18359380960464478,9.710941314697266,0.0,0.0,0.0
8784,-0.010009773075580597,0.006652836687862873,0.0003662111994344741,0.9999396800994873,-0.11328128725290298,-0.16406255960464478,9.726566314697266,0.0,0.0,0.0
8794,-0.010009773075580597,0.006652836687862873,0.0003662111994344741,0.9999396800994873,-0.13281254470348358,-0.19921882450580597,9.757816314697266,0.0,0.0,0.0
8803,-0.010009773075580597,0.006652836687862873,0.0003662111994344741,0.9999396800994873,-0.12500004470348358,-0.17187505960464478,9.683597564697266,0.0,0.0,0.0
8816,-0.010009773075580597,0.006652836687862873,0.0003662111994344741,0.9999396800994873,-0.12500004470348358,-0.17187505960464478,9.703128814697266,0.0,0.0,0.0
8825,-0.010009773075580597,0.006652836687862873,0.0003662111994344741,0.9999396800994873,-0.12500004470348358,-0.17187505960464478,9.703128814697266,0.0,0.0,0.0
8836,-0.010009773075580597,0.006652836687862873,0.0003662111994344741,0.9999396800994873,-0.12500004470348358,-0.17187505960464478,9.703128814697266,0.0,0.0,0.0
8844,-0.010009773075580597,0.006652836687862873,0.0003662111994344741,0.9999396800994873,-0.12500004470348358,-0.17187505960464478,9.703128814697266,0.0,0.0,0.0
8853,-0.010009773075580597,0.006652836687862873,0.0003662111994344741,0.9999396800994873,-0.12500004470348358,-0.21093757450580597,9.722660064697266,0.0,0.0,0.0
8862,-0.010009773075580597,0.006652836687862873,0.0003662111994344741,0.9999396800994873,-0.10546878725290298,-0.21875007450580597,9.722660064697266,0.0,0.0,0.0
8875,-0.010009773075580597,0.006652836687862873,0.0003662111994344741,0.9999396800994873,-0.11328128725290298,-0.19140632450580597,9.707035064697266,0.0,0.0,0.0
8883,-0.010009773075580597,0.006652836687862873,0.0003662111994344741,0.9999396800994873,-0.12500004470348358,-0.19921882450580597,9.734378814697266,0.0,0.0,0.0
8892,-0.010009773075580597,0.006652836687862873,0.0003662111994344741,0.9999396800994873,-0.11328128725290298,-0.19140632450580597,9.707035064697266,0.0,0.0,0.0
8904,-0.010009773075580597,0.006652836687862873,0.0003662111994344741,0.9999396800994873,-0.13281254470348358,-0.17187505960464478,9.710941314697266,0.0,0.0,0.0
8913,-0.010009773075580597,0.006652836687862873,0.0003662111994344741,0.9999396800994873,-0.13281254470348358,-0.17187505960464478,9.710941314697266,0.0,0.0,0.0
8923,-0.010009773075580597,0.006652836687862873,0.0003662111994344741,0.9999396800994873,-0.13281254470348358,-0.18359380960464478,9.726566314697266,0.0,0.0,0.0
8932,-0.010009773075580597,0.006652836687862873,0.0003662111994344741,0.9999396800994873,-0.13281254470348358,-0.17187505960464478,9.710941314697266,0.0,0.0,0.0
8944,-0.010009773075580597,0.006652836687862873,0.0003662111994344741,0.9999396800994873,-0.13281254470348358,-0.18359380960464478,9.726566314697266,0.0,0.0,0.0
8952,-0.010009773075580597,0.006652836687862873,0.0003662111994344741,0.9999396800994873,-0.14453129470348358,-0.19140632450580597,9.718753814697266,0.0,0.0,0.0
8962,-0.010009773075580597,0.006652836687862873,0.0003662111994344741,0.9999396800994873,-0.13281254470348358,-0.19921882450580597,9.714847564697266,0.0,0.0,0.0
8968,-0.010009773075580597,0.006652836687862873,0.0003662111994344741,0.9999396800994873,-0.13281254470348358,-0.18359380960464478,9.710941314697266,0.0,0.0,0.0
8977,-0.010009773075580597,0.006652836687862873,0.0003662111994344741,0.9999396800994873,-0.13281254470348358,-0.18359380960464478,9.710941314697266,0.0,0.0,0.0
8985,-0.010009773075580597,0.006652836687862873,0.0003662111994344741,0.9999396800994873,-0.13281254470348358,-0.18359380960464478,9.710941314697266,0.0,0.0,0.0
9006,-0.010009773075580597,0.006652836687862873,0.0003662111994344741,0.9999396800994873,-0.13281254470348358,-0.18359380960464478,9.710941314697266,0.0,0.0,0.0
9035,-0.010009773075580597,0.006652836687862873,0.0003662111994344741,0.9999396800994873,-0.13281254470348358,-0.18359380960464478,9.710941314697266,0.0,0.0,0.0
9055,-0.010009773075580597,0.006652836687862873,0.0003662111994344741,0.9999396800994873,-0.13281254470348358,-0.18359380960464478,9.710941314697266,0.0,0.0,0.0
9073,-0.010009773075580597,0.006652836687862873,0.0003662111994344741,0.9999396800994873,-0.13281254470348358,-0.18359380960464478,9.710941314697266,0.0,0.0,0.0
9082,-0.010009773075580597,0.006652836687862873,0.0003662111994344741,0.9999396800994873,-0.13281254470348358,-0.18359380960464478,9.710941314697266,0.0,0.0,0.0
9092,-0.010009773075580597,0.006652836687862873,0.0003662111994344741,0.9999396800994873,-0.12500004470348358,-0.19921882450580597,9.679691314697266,0.0,0.0,0.0
9101,-0.010009773075580597,0.006652836687862873,0.0003662111994344741,0.9999396800994873,-0.14453129470348358,-0.18359380960464478,9.714847564697266,0.0,0.0,0.0
9107,-0.010009773075580597,0.006652836687862873,0.0003662111994344741,0.9999396800994873,-0.13281254470348358,-0.19140632450580597,9.750003814697266,0.0,0.0,0.0
9115,-0.010009773075580597,0.006652836687862873,0.0003662111994344741,0.9999396800994873,-0.13281254470348358,-0.19140632450580597,9.750003814697266,0.0,0.0,0.0
9124,-0.010009773075580597,0.006652836687862873,0.0003662111994344741,0.9999396800994873,-0.13281254470348358,-0.19140632450580597,9.750003814697266,0.0,0.0,0.0
9135,-0.010009773075580597,0.006652836687862873,0.0003662111994344741,0.9999396800994873,-0.13281254470348358,-0.19140632450580597,9.707035064697266,0.0,0.0,0.0
9143,-0.010009773075580597,0.006652836687862873,0.0003662111994344741,0.9999396800994873,-0.13281254470348358,-0.19140632450580597,9.707035064697266,0.0,0.0,0.0
9153,-0.010009773075580597,0.006652836687862873,0.0003662111994344741,0.9999396800994873,-0.13281254470348358,-0.19140632450580597,9.707035064697266,0.0,0.0,0.0
9162,-0.010009773075580597,0.006652836687862873,0.0003662111994344741,0.9999396800994873,-0.12500004470348358,-0.19140632450580597,9.714847564697266,0.0,0.0,0.0
9170,-0.010009773075580597,0.006652836687862873,0.0003662111994344741,0.9999396800994873,-0.10546878725290298,-0.19921882450580597,9.730472564697266,0.0,0.0,0.0
9181,-0.010009773075580597,0.006652836687862873,0.0003662111994344741,0.9999396800994873,-0.12500004470348358,-0.18359380960464478,9.714847564697266,0.0,0.0,0.0
9189,-0.010009773075580597,0.006652836687862873,0.0003662111994344741,0.9999396800994873,-0.12500004470348358,-0.18359380960464478,9.714847564697266,0.0,0.0,0.0
9196,-0.010009773075580597,0.006652836687862873,0.0003662111994344741,0.9999396800994873,-0.13281254470348358,-0.19921882450580597,9.691410064697266,0.0,0.0,0.0
9204,-0.010009773075580597,0.006652836687862873,0.0003662111994344741,0.9999396800994873,-0.13281254470348358,-0.19921882450580597,9.691410064697266,0.0,0.0,0.0
9213,-0.010009773075580597,0.006652836687862873,0.0003662111994344741,0.9999396800994873,-0.13281254470348358,-0.19921882450580597,9.691410064697266,0.0,0.0,0.0
9223,-0.010009773075580597,0.006652836687862873,0.0003662111994344741,0.9999396800994873,-0.13281254470348358,-0.19921882450580597,9.691410064697266,0.0,0.0,0.0
9232,-0.010009773075580597,0.006652836687862873,0.0003662111994344741,0.9999396800994873,-0.12500004470348358,-0.19140632450580597,9.714847564697266,0.0,0.0,0.0
9242,-0.010009773075580597,0.006652836687862873,0.0003662111994344741,0.9999396800994873,-0.14453129470348358,-0.21875007450580597,9.718753814697266,0.0,0.0,0.0
9251,-0.010009773075580597,0.006652836687862873,0.0003662111994344741,0.9999396800994873,-0.14453129470348358,-0.21875007450580597,9.718753814697266,0.0,0.0,0.0
9261,-0.010009773075580597,0.006652836687862873,0.0003662111994344741,0.9999396800994873,-0.14453129470348358,-0.21875007450580597,9.718753814697266,0.0,0.0,0.0
9270,-0.010009773075580597,0.006652836687862873,0.0003662111994344741,0.9999396800994873,-0.11328128725290298,-0.19921882450580597,9.714847564697266,0.0,0.0,0.0
9280,-0.010009773075580597,0.006652836687862873,0.0003662111994344741,0.9999396800994873,-0.08593752980232239,-0.19140632450580597,9.714847564697266,0.0,0.0,0.0
9289,-0.010009773075580597,0.006652836687862873,0.0003662111994344741,0.9999396800994873,-0.08593752980232239,-0.19140632450580597,9.714847564697266,-0.003906252793967724,-0.001953126396983862,-0.003906252793967724
9297,-0.010009773075580597,0.006652836687862873,0.0003662111994344741,0.9999396800994873,-0.13281254470348358,-0.19140632450580597,9.707035064697266,-0.003906252793967724,-0.001953126396983862,-0.003906252793967724
9310,-0.010009773075580597,0.006652836687862873,0.0003662111994344741,0.9999396800994873,-0.13281254470348358,-0.17187505960464478,9.726566314697266,-0.003906252793967724,-0.001953126396983862,-0.003906252793967724
9319,-0.010009773075580597,0.006652836687862873,0.0003662111994344741,0.9999396800994873,-0.13281254470348358,-0.17187505960464478,9.726566314697266,0.003906252793967724,0.0,-0.003906252793967724
9327,-0.010009773075580597,0.006652836687862873,0.0003662111994344741,0.9999396800994873,-0.13281254470348358,-0.17187505960464478,9.726566314697266,0.007812505587935448,-0.001953126396983862,0.0
9338,-0.010009773075580597,0.006652836687862873,0.0003662111994344741,0.9999396800994873,-0.13281254470348358,-0.19921882450580597,9.714847564697266,0.007812505587935448,-0.001953126396983862,0.0
9348,-0.010009773075580597,0.006652836687862873,0.0003662111994344741,0.9999396800994873,-0.09765628725290298,-0.21093757450580597,9.687503814697266,0.007812505587935448,-0.001953126396983862,0.0
9359,-0.010009773075580597,0.006652836687862873,0.0003662111994344741,0.9999396800994873,-0.13281254470348358,-0.19921882450580597,9.671878814697266,0.007812505587935448,-0.001953126396983862,0.0
9368,-0.010009773075580597,0.006652836687862873,0.0003662111994344741,0.9999396800994873,-0.11328128725290298,-0.19140632450580597,9.687503814697266,0.007812505587935448,-0.001953126396983862,0.0
9377,-0.010009773075580597,0.006652836687862873,0.0003662111994344741,0.9999396800994873,-0.14453129470348358,-0.18359380960464478,9.730472564697266,0.007812505587935448,-0.001953126396983862,0.0
9390,-0.010009773075580597,0.006652836687862873,0.0003662111994344741,0.9999396800994873,-0.11328128725290298,-0.19921882450580597,9.718753814697266,0.007812505587935448,-0.001953126396983862,0.0
9399,-0.010009773075580597,0.006652836687862873,0.0003662111994344741,0.9999396800994873,-0.11328128725290298,-0.19921882450580597,9.718753814697266,0.001953126396983862,0.001953126396983862,-0.001953126396983862
9407,-0.010009773075580597,0.006652836687862873,0.0003662111994344741,0.9999396800994873,-0.13281254470348358,-0.19140632450580597,9.734378814697266,0.001953126396983862,0.001953126396983862,-0.001953126396983862
9416,-0.010009773075580597,0.006652836687862873,0.0003662111994344741,0.9999396800994873,-0.10546878725290298,-0.17187505960464478,9.722660064697266,0.001953126396983862,0.001953126396983862,-0.001953126396983862
9422,-0.010009773075580597,0.006652836687862873,0.0003662111994344741,0.9999396800994873,-0.14453129470348358,-0.19140632450580597,9.714847564697266,0.001953126396983862,0.001953126396983862,-0.001953126396983862
9432,-0.010009773075580597,0.006652836687862873,0.0003662111994344741,0.9999396800994873,-0.14453129470348358,-0.19140632450580597,9.714847564697266,-0.005859379190951586,0.003906252793967724,-0.007812505587935448
9440,-0.010009773075580597,0.006652836687862873,0.0003662111994344741,0.9999396800994873,-0.13281254470348358,-0.21093757450580597,9.718753814697266,-0.005859379190951586,0.003906252793967724,-0.007812505587935448
9451,-0.010009773075580597,0.006652836687862873,0.0003662111994344741,0.9999396800994873,-0.14453129470348358,-0.19140632450580597,9.714847564697266,-0.005859379190951586,0.003906252793967724,-0.007812505587935448
9470,-0.010009773075580597,0.006652836687862873,0.0003662111994344741,0.9999396800994873,-0.14453129470348358,-0.19140632450580597,9.714847564697266,-0.005859379190951586,0.011718758381903172,-0.009765632450580597
9489,-0.010009773075580597,0.006652836687862873,0.0003662111994344741,0.9999396800994873,-0.14453129470348358,-0.19140632450580597,9.714847564697266,0.003906252793967724,0.001953126396983862,-0.005859379190951586
9499,-0.010009773075580597,0.006652836687862873,0.0003662111994344741,0.9999396800994873,-0.14453129470348358,-0.19140632450580597,9.714847564697266,0.005859379190951586,0.0,0.003906252793967724
9507,-0.010009773075580597,0.006652836687862873,0.0003662111994344741,0.9999396800994873,-0.10546878725290298,-0.21093757450580597,9.718753814697266,0.005859379190951586,0.0,0.003906252793967724
9517,-0.010009773075580597,0.006652836687862873,0.0003662111994344741,0.9999396800994873,-0.10546878725290298,-0.18359380960464478,9.734378814697266,0.005859379190951586,0.0,0.003906252793967724
9526,-0.010009773075580597,0.006652836687862873,0.0003662111994344741,0.9999396800994873,-0.10546878725290298,-0.21093757450580597,9.718753814697266,0.005859379190951586,0.0,0.003906252793967724
9538,-0.010009773075580597,0.006652836687862873,0.0003662111994344741,0.9999396800994873,-0.10546878725290298,-0.19140632450580597,9.707035064697266,0.005859379190951586,0.0,0.003906252793967724
9546,-0.010009773075580597,0.006652836687862873,0.0003662111994344741,0.9999396800994873,-0.09765628725290298,-0.19921882450580597,9.707035064697266,0.005859379190951586,0.0,0.003906252793967724
9555,-0.010009773075580597,0.006652836687862873,0.0003662111994344741,0.9999396800994873,-0.11328128725290298,-0.18359380960464478,9.726566314697266,0.005859379190951586,0.0,0.003906252793967724
9568,-0.010009773075580597,0.006652836687862873,0.0003662111994344741,0.9999396800994873,-0.12500004470348358,-0.19921882450580597,9.750003814697266,0.005859379190951586,0.0,0.003906252793967724
9577,-0.010009773075580597,0.006652836687862873,0.0003662111994344741,0.9999396800994873,-0.11328128725290298,-0.18359380960464478,9.710941314697266,0.005859379190951586,0.0,0.003906252793967724
9585,-0.010009773075580597,0.006652836687862873,0.0003662111994344741,0.9999396800994873,-0.13281254470348358,-0.19921882450580597,9.730472564697266,0.005859379190951586,0.0,0.003906252793967724
9594,-0.010009773075580597,0.006652836687862873,0.0003662111994344741,0.9999396800994873,-0.11328128725290298,-0.19921882450580597,9.714847564697266,0.005859379190951586,0.0,0.003906252793967724
9601,-0.010009773075580597,0.006652836687862873,0.0003662111994344741,0.9999396800994873,-0.13281254470348358,-0.19140632450580597,9.710941314697266,0.005859379190951586,0.0,0.003906252793967724
9610,-0.010009773075580597,0.006652836687862873,0.0003662111994344741,0.9999396800994873,-0.13281254470348358,-0.19140632450580597,9.710941314697266,-0.001953126396983862,-0.005859379190951586,-0.001953126396983862
9620,-0.010009773075580597,0.006652836687862873,0.0003662111994344741,0.9999396800994873,-0.11328128725290298,-0.21093757450580597,9.730472564697266,-0.001953126396983862,-0.005859379190951586,-0.001953126396983862
9628,-0.010009773075580597,0.006652836687862873,0.0003662111994344741,0.9999396800994873,-0.11328128725290298,-0.21093757450580597,9.730472564697266,-0.001953126396983862,0.003906252793967724,-0.005859379190951586
9649,-0.010009773075580597,0.006652836687862873,0.0003662111994344741,0.9999396800994873,-0.11328128725290298,-0.18359380960464478,9.722660064697266,-0.001953126396983862,0.003906252793967724,-0.005859379190951586
9667,-0.010009773075580597,0.006652836687862873,0.0003662111994344741,0.9999396800994873,-0.11328128725290298,-0.18359380960464478,9.722660064697266,-0.001953126396983862,0.0,-0.003906252793967724
9688,-0.010009773075580597,0.006652836687862873,0.0003662111994344741,0.9999396800994873,-0.11328128725290298,-0.18359380960464478,9.722660064697266,-0.001953126396983862,0.0,-0.003906252793967724
9697,-0.010009773075580597,0.006652836687862873,0.0003662111994344741,0.9999396800994873,-0.11328128725290298,-0.18359380960464478,9.722660064697266,0.0,0.007812505587935448,-0.001953126396983862
9717,-0.010009773075580597,0.006652836687862873,0.0003662111994344741,0.9999396800994873,-0.09765628725290298,-0.19140632450580597,9.718753814697266,0.0,0.007812505587935448,-0.001953126396983862
9726,-0.010009773075580597,0.006652836687862873,0.0003662111994344741,0.9999396800994873,-0.09765628725290298,-0.19140632450580597,9.718753814697266,0.0,-0.003906252793967724,0.003906252793967724
9745,-0.010009773075580597,0.006652836687862873,0.0003662111994344741,0.9999396800994873,-0.09765628725290298,-0.19140632450580597,9.718753814697266,-0.003906252793967724,-0.001953126396983862,-0.003906252793967724
9754,-0.010009773075580597,0.006652836687862873,0.0003662111994344741,0.9999396800994873,-0.11328128725290298,-0.17187505960464478,9.710941314697266,-0.003906252793967724,-0.001953126396983862,-0.003906252793967724
9763,-0.010009773075580597,0.006652836687862873,0.0003662111994344741,0.9999396800994873,-0.10546878725290298,-0.19140632450580597,9.750003814697266,-0.003906252793967724,-0.001953126396983862,-0.003906252793967724
9776,-0.010009773075580597,0.006652836687862873,0.0003662111994344741,0.9999396800994873,-0.11328128725290298,-0.18359380960464478,9.707035064697266,-0.003906252793967724,-0.001953126396983862,-0.003906252793967724
9785,-0.010009773075580597,0.006652836687862873,0.0003662111994344741,0.9999396800994873,-0.12500004470348358,-0.19140632450580597,9.730472564697266,-0.003906252793967724,-0.001953126396983862,-0.003906252793967724
9794,-0.010009773075580597,0.006652836687862873,0.0003662111994344741,0.9999396800994873,-0.12500004470348358,-0.18359380960464478,9.730472564697266,-0.003906252793967724,-0.001953126396983862,-0.003906252793967724
9802,-0.010009773075580597,0.006652836687862873,0.0003662111994344741,0.9999396800994873,-0.11328128725290298,-0.19140632450580597,9.750003814697266,-0.003906252793967724,-0.001953126396983862,-0.003906252793967724
9815,-0.010009773075580597,0.006652836687862873,0.0003662111994344741,0.9999396800994873,-0.11328128725290298,-0.19921882450580597,9.738285064697266,-0.003906252793967724,-0.001953126396983862,-0.003906252793967724
9824,-0.010009773075580597,0.006652836687862873,0.0003662111994344741,0.9999396800994873,-0.13281254470348358,-0.19140632450580597,9.707035064697266,-0.003906252793967724,-0.001953126396983862,-0.003906252793967724
9833,-0.010009773075580597,0.006652836687862873,0.0003662111994344741,0.9999396800994873,-0.14453129470348358,-0.19921882450580597,9.722660064697266,-0.003906252793967724,-0.001953126396983862,-0.003906252793967724
9845,-0.010009773075580597,0.006652836687862873,0.0003662111994344741,0.9999396800994873,-0.13281254470348358,-0.19921882450580597,9.691410064697266,-0.003906252793967724,-0.001953126396983862,-0.003906252793967724
9853,-0.010009773075580597,0.006652836687862873,0.0003662111994344741,0.9999396800994873,-0.11328128725290298,-0.19921882450580597,9.714847564697266,-0.003906252793967724,-0.001953126396983862,-0.003906252793967724
9863,-0.010009773075580597,0.006652836687862873,0.0003662111994344741,0.9999396800994873,-0.14453129470348358,-0.18359380960464478,9.718753814697266,-0.003906252793967724,-0.001953126396983862,-0.003906252793967724
9872,-0.010009773075580597,0.006652836687862873,0.0003662111994344741,0.9999396800994873,-0.10546878725290298,-0.21093757450580597,9.703128814697266,-0.003906252793967724,-0.001953126396983862,-0.003906252793967724
9878,-0.010009773075580597,0.006652836687862873,0.0003662111994344741,0.9999396800994873,-0.09765628725290298,-0.17187505960464478,9.718753814697266,-0.003906252793967724,-0.001953126396983862,-0.003906252793967724
9887,-0.010009773075580597,0.006652836687862873,0.0003662111994344741,0.9999396800994873,-0.09765628725290298,-0.17187505960464478,9.718753814697266,0.003906252793967724,0.0,0.0
9896,-0.010009773075580597,0.006652836687862873,0.0003662111994344741,0.9999396800994873,-0.12500004470348358,-0.19921882450580597,9.710941314697266,0.003906252793967724,0.0,0.0
9906,-0.010009773075580597,0.006652836687862873,0.0003662111994344741,0.9999396800994873,-0.12500004470348358,-0.19921882450580597,9.710941314697266,0.003906252793967724,0.0,0.001953126396983862
9915,-0.010009773075580597,0.006652836687862873,0.0003662111994344741,0.9999396800994873,-0.12500004470348358,-0.19921882450580597,9.710941314697266,0.001953126396983862,0.001953126396983862,0.0
9924,-0.010009773075580597,0.006652836687862873,0.0003662111994344741,0.9999396800994873,-0.14453129470348358,-0.18359380960464478,9.703128814697266,0.001953126396983862,0.001953126396983862,0.0
9933,-0.010009773075580597,0.006652836687862873,0.0003662111994344741,0.9999396800994873,-0.12500004470348358,-0.18359380960464478,9.714847564697266,0.001953126396983862,0.001953126396983862,0.0
9943,-0.010009773075580597,0.006652836687862873,0.0003662111994344741,0.9999396800994873,-0.12500004470348358,-0.19921882450580597,9.726566314697266,0.001953126396983862,0.001953126396983862,0.0
9951,-0.010009773075580597,0.006652836687862873,0.0003662111994344741,0.9999396800994873,-0.13281254470348358,-0.21093757450580597,9.703128814697266,0.001953126396983862,0.001953126396983862,0.0
9965,-0.010009773075580597,0.006652836687862873,0.0003662111994344741,0.9999396800994873,-0.12500004470348358,-0.19140632450580597,9.730472564697266,0.001953126396983862,0.001953126396983862,0.0
9974,-0.010009773075580597,0.006652836687862873,0.0003662111994344741,0.9999396800994873,-0.12500004470348358,-0.19140632450580597,9.730472564697266,0.003906252793967724,0.0,0.0
9984,-0.010009773075580597,0.006652836687862873,0.0003662111994344741,0.9999396800994873,-0.12500004470348358,-0.19140632450580597,9.730472564697266,0.001953126396983862,0.001953126396983862,-0.005859379190951586
9993,-0.010009773075580597,0.006652836687862873,0.0003662111994344741,0.9999396800994873,-0.12500004470348358,-0.19921882450580597,9.726566314697266,0.001953126396983862,0.001953126396983862,-0.005859379190951586
10002,-0.010009773075580597,0.006652836687862873,0.0003662111994344741,0.9999396800994873,-0.10546878725290298,-0.21093757450580597,9.730472564697266,0.001953126396983862,0.001953126396983862,-0.005859379190951586
10010,-0.010009773075580597,0.006652836687862873,0.0003662111994344741,0.9999396800994873,-0.10546878725290298,-0.19921882450580597,9.714847564697266,0.001953126396983862,0.001953126396983862,-0.005859379190951586
10022,-0.010009773075580597,0.006652836687862873,0.0003662111994344741,0.9999396800994873,-0.09765628725290298,-0.19140632450580597,9.730472564697266,0.001953126396983862,0.001953126396983862,-0.005859379190951586
10032,-0.010009773075580597,0.006652836687862873,0.0003662111994344741,0.9999396800994873,-0.14453129470348358,-0.19140632450580597,9.703128814697266,0.001953126396983862,0.001953126396983862,-0.005859379190951586
10041,-0.010009773075580597,0.006652836687862873,0.0003662111994344741,0.9999396800994873,-0.12500004470348358,-0.19921882450580597,9.707035064697266,0.001953126396983862,0.001953126396983862,-0.005859379190951586
10053,-0.010009773075580597,0.006652836687862873,0.0003662111994344741,0.9999396800994873,-0.11328128725290298,-0.19140632450580597,9.675785064697266,0.001953126396983862,0.001953126396983862,-0.005859379190951586
10061,-0.010009773075580597,0.006652836687862873,0.0003662111994344741,0.9999396800994873,-0.11328128725290298,-0.21093757450580597,9.718753814697266,0.001953126396983862,0.001953126396983862,-0.005859379190951586
10071,-0.010009773075580597,0.006652836687862873,0.0003662111994344741,0.9999396800994873,-0.12500004470348358,-0.19140632450580597,9.703128814697266,0.001953126396983862,0.001953126396983862,-0.005859379190951586
10078,-0.010009773075580597,0.006652836687862873,0.0003662111994344741,0.9999396800994873,-0.13281254470348358,-0.18359380960464478,9.726566314697266,0.001953126396983862,0.001953126396983862,-0.005859379190951586
10086,-0.010253913700580597,0.00708008324727416,-0.0005493168137036264,0.9999396800994873,-0.13281254470348358,-0.18359380960464478,9.726566314697266,0.001953126396983862,0.001953126396983862,-0.005859379190951586
10094,-0.010253913700580597,0.00708008324727416,-0.0005493168137036264,0.9999396800994873,-0.13281254470348358,-0.18359380960464478,9.726566314697266,0.007812505587935448,0.0,0.0
10114,-0.010253913700580597,0.00708008324727416,-0.0005493168137036264,0.9999396800994873,-0.13281254470348358,-0.18359380960464478,9.726566314697266,0.003906252793967724,-0.001953126396983862,0.0
10134,-0.010253913700580597,0.00708008324727416,-0.0005493168137036264,0.9999396800994873,-0.11328128725290298,-0.19921882450580597,9.738285064697266,0.003906252793967724,-0.001953126396983862,0.0
10174,-0.010253913700580597,0.00708008324727416,-0.0005493168137036264,0.9999396800994873,-0.11328128725290298,-0.19921882450580597,9.738285064697266,-0.015625011175870895,0.001953126396983862,-0.005859379190951586
10213,-0.010253913700580597,0.00708008324727416,-0.0005493168137036264,0.9999396800994873,-0.11328128725290298,-0.19921882450580597,9.738285064697266,-0.003906252793967724,0.003906252793967724,-0.009765632450580597
