Timestamp,QI,QJ,QK,QR,AX,AY,AZ,GX,GY,GZ
2519,0.0,0.0,0.0,0.0,-0.17187505960464478,-0.4882814288139343,9.671878814697266,0.0,0.0,0.0
2531,0.0,0.0,0.0,0.0,-0.18359380960464478,-0.4609376788139343,9.707035064697266,0.0,0.0,0.0
2546,0.0,0.0,0.0,0.0,-0.19140632450580597,-0.4804689288139343,9.718753814697266,0.0,0.0,0.0
2555,0.0,0.0,0.0,0.0,-0.19140632450580597,-0.4804689288139343,9.718753814697266,0.0,-0.001953126396983862,-0.001953126396983862
2563,0.0,0.0,0.0,0.0,-0.17187505960464478,-0.44140639901161194,9.714847564697266,0.0,-0.001953126396983862,-0.001953126396983862
2569,0.0,0.0,0.0,0.0,-0.17187505960464478,-0.44140639901161194,9.714847564697266,-0.003906252793967724,-0.003906252793967724,0.0
2576,-0.023742692545056343,0.009216315113008022,-0.00024414079962298274,0.9996955394744873,-0.17187505960464478,-0.44140639901161194,9.714847564697266,-0.003906252793967724,-0.003906252793967724,0.0
2582,-0.023742692545056343,0.009216315113008022,-0.00024414079962298274,0.9996955394744873,-0.16406255960464478,-0.44921889901161194,9.675785064697266,-0.003906252793967724,-0.003906252793967724,0.0
2589,-0.023742692545056343,0.009216315113008022,-0.00024414079962298274,0.9996955394744873,-0.16406255960464478,-0.44921889901161194,9.675785064697266,0.0,0.003906252793967724,0.0
2596,-0.023742692545056343,0.009216315113008022,-0.00024414079962298274,0.9996955394744873,-0.16406255960464478,-0.44921889901161194,9.675785064697266,0.0,0.003906252793967724,0.0
2603,-0.023742692545056343,0.009216315113008022,-0.00024414079962298274,0.9996955394744873,-0.18359380960464478,-0.44140639901161194,9.683597564697266,0.0,0.003906252793967724,0.0
2609,-0.023742692545056343,0.009216315113008022,-0.00024414079962298274,0.9996955394744873,-0.18359380960464478,-0.44140639901161194,9.683597564697266,0.0,0.003906252793967724,0.001953126396983862
2618,-0.023742692545056343,0.009277350269258022,-0.00024414079962298274,0.9996955394744873,-0.18359380960464478,-0.44140639901161194,9.683597564697266,0.0,0.003906252793967724,0.001953126396983862
2624,-0.023742692545056343,0.009277350269258022,-0.00024414079962298274,0.9996955394744873,-0.19140632450580597,-0.4687501788139343,9.718753814697266,0.0,0.003906252793967724,0.001953126396983862
2630,-0.023742692545056343,0.009277350269258022,-0.00024414079962298274,0.9996955394744873,-0.19140632450580597,-0.4687501788139343,9.718753814697266,0.0,0.0,0.0
2639,-0.023742692545056343,0.009277350269258022,-0.00024414079962298274,0.9996955394744873,-0.19140632450580597,-0.4687501788139343,9.718753814697266,0.0,0.0,0.0
2646,-0.023742692545056343,0.009277350269258022,-0.00024414079962298274,0.9996955394744873,-0.17187505960464478,-0.4609376788139343,9.632816314697266,0.0,0.0,0.0
2652,-0.023742692545056343,0.009277350269258022,-0.00024414079962298274,0.9996955394744873,-0.17187505960464478,-0.4609376788139343,9.632816314697266,0.0,0.0,0.001953126396983862
2660,-0.023742692545056343,0.009277350269258022,-0.00024414079962298274,0.9996955394744873,-0.17187505960464478,-0.4609376788139343,9.632816314697266,0.0,0.0,0.001953126396983862
2668,-0.023742692545056343,0.009277350269258022,-0.00024414079962298274,0.9996955394744873,-0.17187505960464478,-0.4609376788139343,9.632816314697266,0.001953126396983862,0.0,-0.001953126396983862
2677,-0.023742692545056343,0.009277350269258022,-0.00024414079962298274,0.9996955394744873,-0.17187505960464478,-0.4609376788139343,9.632816314697266,0.001953126396983862,0.0,-0.001953126396983862
2689,-0.023742692545056343,0.009277350269258022,-0.00024414079962298274,0.9996955394744873,-0.19140632450580597,-0.44921889901161194,9.707035064697266,0.001953126396983862,0.0,-0.001953126396983862
2697,-0.023742692545056343,0.009277350269258022,-0.00024414079962298274,0.9996955394744873,-0.19140632450580597,-0.44921889901161194,9.707035064697266,0.0,0.001953126396983862,-0.001953126396983862
2703,-0.023742692545056343,0.009277350269258022,-0.00024414079962298274,0.9996955394744873,-0.18359380960464478,-0.4609376788139343,9.675785064697266,0.0,0.001953126396983862,-0.001953126396983862
2709,-0.023742692545056343,0.009277350269258022,-0.00024414079962298274,0.9996955394744873,-0.18359380960464478,-0.4609376788139343,9.675785064697266,0.0,-0.001953126396983862,-0.001953126396983862
2718,-0.023681657388806343,0.009277350269258022,-0.00024414079962298274,0.9996955394744873,-0.18359380960464478,-0.4609376788139343,9.675785064697266,0.0,-0.001953126396983862,-0.001953126396983862
2725,-0.023681657388806343,0.009277350269258022,-0.00024414079962298274,0.9996955394744873,-0.18359380960464478,-0.44921889901161194,9.675785064697266,0.0,-0.001953126396983862,-0.001953126396983862
2734,-0.023681657388806343,0.009277350269258022,-0.00024414079962298274,0.9996955394744873,-0.18359380960464478,-0.44921889901161194,9.675785064697266,-0.003906252793967724,0.001953126396983862,-0.001953126396983862
2740,-0.023681657388806343,0.009277350269258022,-0.00024414079962298274,0.9996955394744873,-0.19140632450580597,-0.4687501788139343,9.738285064697266,-0.003906252793967724,0.001953126396983862,-0.001953126396983862
2748,-0.023681657388806343,0.009277350269258022,-0.00024414079962298274,0.9996955394744873,-0.19140632450580597,-0.4687501788139343,9.738285064697266,0.0,0.0,-0.001953126396983862
2756,-0.023681657388806343,0.009277350269258022,-0.00030517601408064365,0.9996955394744873,-0.19140632450580597,-0.4687501788139343,9.738285064697266,0.0,0.0,-0.001953126396983862
2763,-0.023681657388806343,0.009277350269258022,-0.00030517601408064365,0.9996955394744873,-0.18359380960464478,-0.4609376788139343,9.679691314697266,0.0,0.0,-0.001953126396983862
2768,-0.023681657388806343,0.009277350269258022,-0.00030517601408064365,0.9996955394744873,-0.18359380960464478,-0.4609376788139343,9.679691314697266,0.001953126396983862,-0.003906252793967724,0.0
2776,-0.023681657388806343,0.009277350269258022,-0.00030517601408064365,0.9996955394744873,-0.18359380960464478,-0.4609376788139343,9.679691314697266,0.001953126396983862,-0.003906252793967724,0.0
2782,-0.023681657388806343,0.009277350269258022,-0.00030517601408064365,0.9996955394744873,-0.17187505960464478,-0.4609376788139343,9.687503814697266,0.001953126396983862,-0.003906252793967724,0.0
2788,-0.023681657388806343,0.009277350269258022,-0.00030517601408064365,0.9996955394744873,-0.17187505960464478,-0.4609376788139343,9.687503814697266,0.0,0.0,-0.001953126396983862
2795,-0.023681657388806343,0.009277350269258022,-0.00030517601408064365,0.9996955394744873,-0.17187505960464478,-0.4609376788139343,9.687503814697266,0.0,0.0,-0.001953126396983862
2800,-0.023681657388806343,0.009277350269258022,-0.00030517601408064365,0.9996955394744873,-0.18359380960464478,-0.4609376788139343,9.675785064697266,0.0,0.0,-0.001953126396983862
2806,-0.023681657388806343,0.009277350269258022,-0.00030517601408064365,0.9996955394744873,-0.18359380960464478,-0.4609376788139343,9.675785064697266,0.0,0.0,-0.001953126396983862
2816,-0.023681657388806343,0.009277350269258022,-0.00030517601408064365,0.9996955394744873,-0.18359380960464478,-0.4609376788139343,9.675785064697266,0.0,0.0,-0.001953126396983862
2827,-0.023681657388806343,0.009277350269258022,-0.00030517601408064365,0.9996955394744873,-0.18359380960464478,-0.4609376788139343,9.710941314697266,0.0,0.0,-0.001953126396983862
2836,-0.023681657388806343,0.009277350269258022,-0.00030517601408064365,0.9996955394744873,-0.18359380960464478,-0.4609376788139343,9.710941314697266,0.0,-0.001953126396983862,0.0
2842,-0.023681657388806343,0.009277350269258022,-0.00030517601408064365,0.9996955394744873,-0.17187505960464478,-0.4609376788139343,9.679691314697266,0.0,-0.001953126396983862,0.0
2848,-0.023681657388806343,0.009277350269258022,-0.00030517601408064365,0.9996955394744873,-0.17187505960464478,-0.4609376788139343,9.679691314697266,-0.001953126396983862,0.0,0.001953126396983862
2854,-0.023681657388806343,0.009216315113008022,-0.00030517601408064365,0.9996955394744873,-0.17187505960464478,-0.4609376788139343,9.679691314697266,-0.001953126396983862,0.0,0.001953126396983862
2861,-0.023681657388806343,0.009216315113008022,-0.00030517601408064365,0.9996955394744873,-0.16406255960464478,-0.4687501788139343,9.738285064697266,-0.001953126396983862,0.0,0.001953126396983862
2867,-0.023681657388806343,0.009216315113008022,-0.00030517601408064365,0.9996955394744873,-0.16406255960464478,-0.4687501788139343,9.738285064697266,0.0,0.0,0.001953126396983862
2874,-0.023742692545056343,0.009277350269258022,-0.00030517601408064365,0.9996955394744873,-0.16406255960464478,-0.4687501788139343,9.738285064697266,0.0,0.0,0.001953126396983862
2880,-0.023742692545056343,0.009277350269258022,-0.00030517601408064365,0.9996955394744873,-0.17187505960464478,-0.44921889901161194,9.667972564697266,0.0,0.0,0.001953126396983862
2886,-0.023742692545056343,0.009277350269258022,-0.00030517601408064365,0.9996955394744873,-0.17187505960464478,-0.44921889901161194,9.667972564697266,0.0,0.001953126396983862,0.001953126396983862
2894,-0.023742692545056343,0.009277350269258022,-0.00030517601408064365,0.9996955394744873,-0.17187505960464478,-0.44921889901161194,9.667972564697266,0.0,0.001953126396983862,0.001953126396983862
2902,-0.023742692545056343,0.009277350269258022,-0.00030517601408064365,0.9996955394744873,-0.19140632450580597,-0.4687501788139343,9.671878814697266,0.0,0.001953126396983862,0.001953126396983862
2908,-0.023742692545056343,0.009277350269258022,-0.00030517601408064365,0.9996955394744873,-0.19140632450580597,-0.4687501788139343,9.671878814697266,0.001953126396983862,0.0,0.001953126396983862
2914,-0.023742692545056343,0.009277350269258022,-0.00030517601408064365,0.9996955394744873,-0.19140632450580597,-0.4687501788139343,9.671878814697266,0.001953126396983862,0.0,0.001953126396983862
2920,-0.023742692545056343,0.009277350269258022,-0.00030517601408064365,0.9996955394744873,-0.18359380960464478,-0.4687501788139343,9.664066314697266,0.001953126396983862,0.0,0.001953126396983862
2926,-0.023742692545056343,0.009277350269258022,-0.00030517601408064365,0.9996955394744873,-0.18359380960464478,-0.4687501788139343,9.664066314697266,0.0,0.0,-0.001953126396983862
2933,-0.023742692545056343,0.009277350269258022,-0.00030517601408064365,0.9996955394744873,-0.18359380960464478,-0.4687501788139343,9.664066314697266,0.0,0.0,-0.001953126396983862
2939,-0.023742692545056343,0.009277350269258022,-0.00030517601408064365,0.9996955394744873,-0.18359380960464478,-0.4687501788139343,9.714847564697266,0.0,0.0,-0.001953126396983862
2946,-0.023742692545056343,0.009277350269258022,-0.00030517601408064365,0.9996955394744873,-0.18359380960464478,-0.4687501788139343,9.714847564697266,0.0,0.001953126396983862,0.0
2954,-0.023742692545056343,0.009277350269258022,-0.00030517601408064365,0.9996955394744873,-0.18359380960464478,-0.4687501788139343,9.714847564697266,0.0,0.001953126396983862,0.0
2966,-0.023742692545056343,0.009277350269258022,-0.00030517601408064365,0.9996955394744873,-0.16406255960464478,-0.44140639901161194,9.703128814697266,0.0,0.001953126396983862,0.0
2974,-0.023742692545056343,0.009277350269258022,-0.00030517601408064365,0.9996955394744873,-0.16406255960464478,-0.44140639901161194,9.703128814697266,0.001953126396983862,0.0,-0.001953126396983862
2980,-0.023742692545056343,0.009277350269258022,-0.00030517601408064365,0.9996955394744873,-0.17187505960464478,-0.4609376788139343,9.679691314697266,0.001953126396983862,0.0,-0.001953126396983862
2987,-0.023742692545056343,0.009277350269258022,-0.00030517601408064365,0.9996955394744873,-0.17187505960464478,-0.4609376788139343,9.679691314697266,0.001953126396983862,0.001953126396983862,-0.001953126396983862
2993,-0.023742692545056343,0.009277350269258022,-0.00030517601408064365,0.9996955394744873,-0.17187505960464478,-0.4609376788139343,9.679691314697266,0.001953126396983862,0.001953126396983862,-0.001953126396983862
2999,-0.023742692545056343,0.009277350269258022,-0.00030517601408064365,0.9996955394744873,-0.19140632450580597,-0.44921889901161194,9.667972564697266,0.001953126396983862,0.001953126396983862,-0.001953126396983862
3005,-0.023742692545056343,0.009277350269258022,-0.00030517601408064365,0.9996955394744873,-0.19140632450580597,-0.44921889901161194,9.667972564697266,-0.003906252793967724,0.003906252793967724,0.0
3012,-0.023742692545056343,0.009277350269258022,-0.0003662111994344741,0.9996955394744873,-0.19140632450580597,-0.44921889901161194,9.667972564697266,-0.003906252793967724,0.003906252793967724,0.0
3018,-0.023742692545056343,0.009277350269258022,-0.0003662111994344741,0.9996955394744873,-0.18359380960464478,-0.4687501788139343,9.671878814697266,-0.003906252793967724,0.003906252793967724,0.0
3024,-0.023742692545056343,0.009277350269258022,-0.0003662111994344741,0.9996955394744873,-0.18359380960464478,-0.4687501788139343,9.671878814697266,0.003906252793967724,0.001953126396983862,0.001953126396983862
3034,-0.023742692545056343,0.009277350269258022,-0.0003662111994344741,0.9996955394744873,-0.18359380960464478,-0.4687501788139343,9.671878814697266,0.003906252793967724,0.001953126396983862,0.001953126396983862
3041,-0.023742692545056343,0.009277350269258022,-0.0003662111994344741,0.9996955394744873,-0.18359380960464478,-0.4609376788139343,9.707035064697266,0.003906252793967724,0.001953126396983862,0.001953126396983862
3047,-0.023742692545056343,0.009277350269258022,-0.0003662111994344741,0.9996955394744873,-0.18359380960464478,-0.4609376788139343,9.707035064697266,0.0,0.0,0.001953126396983862
3054,-0.023742692545056343,0.009277350269258022,-0.00030517601408064365,0.9996955394744873,-0.18359380960464478,-0.4609376788139343,9.707035064697266,0.0,0.0,0.001953126396983862
3060,-0.023742692545056343,0.009277350269258022,-0.00030517601408064365,0.9996955394744873,-0.17187505960464478,-0.4804689288139343,9.683597564697266,0.0,0.0,0.001953126396983862
3066,-0.023742692545056343,0.009277350269258022,-0.00030517601408064365,0.9996955394744873,-0.17187505960464478,-0.4804689288139343,9.683597564697266,0.0,-0.001953126396983862,0.003906252793967724
3073,-0.023742692545056343,0.009277350269258022,-0.00030517601408064365,0.9996955394744873,-0.17187505960464478,-0.4804689288139343,9.683597564697266,0.0,-0.001953126396983862,0.003906252793967724
3079,-0.023742692545056343,0.009277350269258022,-0.00030517601408064365,0.9996955394744873,-0.19140632450580597,-0.4609376788139343,9.687503814697266,0.0,-0.001953126396983862,0.003906252793967724
3085,-0.023742692545056343,0.009277350269258022,-0.00030517601408064365,0.9996955394744873,-0.19140632450580597,-0.4609376788139343,9.687503814697266,0.001953126396983862,-0.001953126396983862,0.001953126396983862
3104,-0.023742692545056343,0.009277350269258022,-0.00030517601408064365,0.9996955394744873,-0.19140632450580597,-0.4609376788139343,9.687503814697266,0.0,0.0,0.0
3112,-0.023742692545056343,0.009277350269258022,-0.00024414079962298274,0.9996955394744873,-0.19140632450580597,-0.4609376788139343,9.687503814697266,0.0,0.0,0.0
3119,-0.023742692545056343,0.009277350269258022,-0.00024414079962298274,0.9996955394744873,-0.18359380960464478,-0.44921889901161194,9.687503814697266,0.0,0.0,0.0
3125,-0.023742692545056343,0.009277350269258022,-0.00024414079962298274,0.9996955394744873,-0.18359380960464478,-0.44921889901161194,9.687503814697266,-0.001953126396983862,0.003906252793967724,-0.001953126396983862
3134,-0.023742692545056343,0.009277350269258022,-0.00030517601408064365,0.9996955394744873,-0.18359380960464478,-0.44921889901161194,9.687503814697266,-0.001953126396983862,0.003906252793967724,-0.001953126396983862
3140,-0.023742692545056343,0.009277350269258022,-0.00030517601408064365,0.9996955394744873,-0.19140632450580597,-0.44921889901161194,9.667972564697266,-0.001953126396983862,0.003906252793967724,-0.001953126396983862
3146,-0.023742692545056343,0.009277350269258022,-0.00030517601408064365,0.9996955394744873,-0.19140632450580597,-0.44921889901161194,9.667972564697266,0.0,0.001953126396983862,0.0
3154,-0.023742692545056343,0.009277350269258022,-0.00030517601408064365,0.9996955394744873,-0.19140632450580597,-0.44921889901161194,9.667972564697266,0.0,0.001953126396983862,0.0
3163,-0.023742692545056343,0.009277350269258022,-0.00030517601408064365,0.9996955394744873,-0.19140632450580597,-0.44921889901161194,9.667972564697266,0.003906252793967724,0.001953126396983862,-0.001953126396983862
3172,-0.023742692545056343,0.009277350269258022,-0.00030517601408064365,0.9996955394744873,-0.19140632450580597,-0.44921889901161194,9.667972564697266,0.003906252793967724,0.001953126396983862,-0.001953126396983862
3180,-0.023742692545056343,0.009277350269258022,-0.00030517601408064365,0.9996955394744873,-0.19140632450580597,-0.44921889901161194,9.710941314697266,0.003906252793967724,0.001953126396983862,-0.001953126396983862
3186,-0.023742692545056343,0.009277350269258022,-0.00030517601408064365,0.9996955394744873,-0.19140632450580597,-0.44921889901161194,9.710941314697266,0.0,0.0,-0.001953126396983862
3192,-0.023742692545056343,0.009277350269258022,-0.00030517601408064365,0.9996955394744873,-0.19140632450580597,-0.44921889901161194,9.710941314697266,0.0,0.0,-0.001953126396983862
3200,-0.023742692545056343,0.009277350269258022,-0.00030517601408064365,0.9996955394744873,-0.16406255960464478,-0.44140639901161194,9.683597564697266,0.0,0.0,-0.001953126396983862
3206,-0.023742692545056343,0.009277350269258022,-0.00030517601408064365,0.9996955394744873,-0.16406255960464478,-0.44140639901161194,9.683597564697266,-0.003906252793967724,0.001953126396983862,0.0
3212,-0.023803727701306343,0.009277350269258022,-0.00030517601408064365,0.9996955394744873,-0.16406255960464478,-0.44140639901161194,9.683597564697266,-0.003906252793967724,0.001953126396983862,0.0
3218,-0.023803727701306343,0.009277350269258022,-0.00030517601408064365,0.9996955394744873,-0.17187505960464478,-0.44921889901161194,9.687503814697266,-0.003906252793967724,0.001953126396983862,0.0
3224,-0.023803727701306343,0.009277350269258022,-0.00030517601408064365,0.9996955394744873,-0.17187505960464478,-0.44921889901161194,9.687503814697266,0.001953126396983862,0.001953126396983862,0.001953126396983862
3232,-0.023742692545056343,0.009277350269258022,-0.00030517601408064365,0.9996955394744873,-0.17187505960464478,-0.44921889901161194,9.687503814697266,0.001953126396983862,0.001953126396983862,0.001953126396983862
3241,-0.023742692545056343,0.009277350269258022,-0.00030517601408064365,0.9996955394744873,-0.17187505960464478,-0.44921889901161194,9.687503814697266,0.0,0.0,0.001953126396983862
3250,-0.023742692545056343,0.009277350269258022,-0.00030517601408064365,0.9996955394744873,-0.17187505960464478,-0.44921889901161194,9.687503814697266,0.0,0.0,0.001953126396983862
3256,-0.023742692545056343,0.009277350269258022,-0.00030517601408064365,0.9996955394744873,-0.17187505960464478,-0.4609376788139343,9.679691314697266,0.0,0.0,0.001953126396983862
3262,-0.023742692545056343,0.009277350269258022,-0.00030517601408064365,0.9996955394744873,-0.17187505960464478,-0.4609376788139343,9.679691314697266,0.003906252793967724,-0.003906252793967724,-0.001953126396983862
3269,-0.023742692545056343,0.009277350269258022,-0.00030517601408064365,0.9996955394744873,-0.17187505960464478,-0.4609376788139343,9.679691314697266,0.003906252793967724,-0.003906252793967724,-0.001953126396983862
3275,-0.023742692545056343,0.009277350269258022,-0.00030517601408064365,0.9996955394744873,-0.17187505960464478,-0.4609376788139343,9.667972564697266,0.003906252793967724,-0.003906252793967724,-0.001953126396983862
3281,-0.023742692545056343,0.009277350269258022,-0.00030517601408064365,0.9996955394744873,-0.17187505960464478,-0.4609376788139343,9.667972564697266,0.001953126396983862,0.0,0.001953126396983862
3289,-0.023742692545056343,0.009277350269258022,-0.00030517601408064365,0.9996955394744873,-0.17187505960464478,-0.4609376788139343,9.667972564697266,0.001953126396983862,0.0,0.001953126396983862
3295,-0.023742692545056343,0.009277350269258022,-0.00030517601408064365,0.9996955394744873,-0.19140632450580597,-0.4687501788139343,9.683597564697266,0.001953126396983862,0.0,0.001953126396983862
3301,-0.023742692545056343,0.009277350269258022,-0.00030517601408064365,0.9996955394744873,-0.19140632450580597,-0.4687501788139343,9.683597564697266,0.0,0.001953126396983862,-0.001953126396983862
3309,-0.023742692545056343,0.009277350269258022,-0.00030517601408064365,0.9996955394744873,-0.19140632450580597,-0.4687501788139343,9.683597564697266,0.0,0.001953126396983862,-0.001953126396983862
3318,-0.023742692545056343,0.009277350269258022,-0.00030517601408064365,0.9996955394744873,-0.16406255960464478,-0.4609376788139343,9.679691314697266,0.0,0.001953126396983862,-0.001953126396983862
3324,-0.023742692545056343,0.009277350269258022,-0.00030517601408064365,0.9996955394744873,-0.16406255960464478,-0.4609376788139343,9.679691314697266,0.001953126396983862,0.0,0.0
3331,-0.023742692545056343,0.009277350269258022,-0.00030517601408064365,0.9996955394744873,-0.16406255960464478,-0.4609376788139343,9.679691314697266,0.001953126396983862,0.0,0.0
3337,-0.023742692545056343,0.009277350269258022,-0.00030517601408064365,0.9996955394744873,-0.18359380960464478,-0.4687501788139343,9.683597564697266,0.001953126396983862,0.0,0.0
3343,-0.023742692545056343,0.009277350269258022,-0.00030517601408064365,0.9996955394744873,-0.18359380960464478,-0.4687501788139343,9.683597564697266,0.001953126396983862,0.0,0.0
3350,-0.023742692545056343,0.009277350269258022,-0.00030517601408064365,0.9996955394744873,-0.18359380960464478,-0.4687501788139343,9.683597564697266,0.001953126396983862,0.0,0.0
3356,-0.023742692545056343,0.009277350269258022,-0.00030517601408064365,0.9996955394744873,-0.17187505960464478,-0.44921889901161194,9.687503814697266,0.001953126396983862,0.0,0.0
3361,-0.023742692545056343,0.009277350269258022,-0.00030517601408064365,0.9996955394744873,-0.17187505960464478,-0.44921889901161194,9.687503814697266,-0.001953126396983862,0.0,0.0
3371,-0.023742692545056343,0.009277350269258022,-0.00030517601408064365,0.9996955394744873,-0.17187505960464478,-0.44921889901161194,9.687503814697266,-0.001953126396983862,0.0,0.0
3381,-0.023742692545056343,0.009277350269258022,-0.00030517601408064365,0.9996955394744873,-0.17187505960464478,-0.44921889901161194,9.687503814697266,0.0,0.001953126396983862,-0.001953126396983862
3389,-0.023742692545056343,0.009277350269258022,-0.00030517601408064365,0.9996955394744873,-0.17187505960464478,-0.44921889901161194,9.687503814697266,0.0,0.001953126396983862,-0.001953126396983862
3396,-0.023742692545056343,0.009277350269258022,-0.00030517601408064365,0.9996955394744873,-0.18359380960464478,-0.44921889901161194,9.675785064697266,0.0,0.001953126396983862,-0.001953126396983862
3402,-0.023742692545056343,0.009277350269258022,-0.00030517601408064365,0.9996955394744873,-0.18359380960464478,-0.44921889901161194,9.675785064697266,0.003906252793967724,0.001953126396983862,0.0
3411,-0.023742692545056343,0.009277350269258022,-0.0003662111994344741,0.9996955394744873,-0.18359380960464478,-0.44921889901161194,9.675785064697266,0.003906252793967724,0.001953126396983862,0.0
3418,-0.023742692545056343,0.009277350269258022,-0.0003662111994344741,0.9996955394744873,-0.17187505960464478,-0.4687501788139343,9.714847564697266,0.003906252793967724,0.001953126396983862,0.0
3424,-0.023742692545056343,0.009277350269258022,-0.0003662111994344741,0.9996955394744873,-0.17187505960464478,-0.4687501788139343,9.714847564697266,0.0,0.0,0.001953126396983862
3432,-0.023742692545056343,0.009277350269258022,-0.00030517601408064365,0.9996955394744873,-0.17187505960464478,-0.4687501788139343,9.714847564697266,0.0,0.0,0.001953126396983862
3440,-0.023742692545056343,0.009277350269258022,-0.00030517601408064365,0.9996955394744873,-0.17187505960464478,-0.4687501788139343,9.714847564697266,-0.003906252793967724,0.0,-0.001953126396983862
3448,-0.023803727701306343,0.009277350269258022,-0.00030517601408064365,0.9996955394744873,-0.17187505960464478,-0.4687501788139343,9.714847564697266,-0.003906252793967724,0.0,-0.001953126396983862
3457,-0.023803727701306343,0.009277350269258022,-0.00030517601408064365,0.9996955394744873,-0.18359380960464478,-0.44140639901161194,9.648441314697266,-0.003906252793967724,0.0,-0.001953126396983862
3463,-0.023803727701306343,0.009277350269258022,-0.00030517601408064365,0.9996955394744873,-0.18359380960464478,-0.44140639901161194,9.648441314697266,0.0,0.0,-0.001953126396983862
3469,-0.023742692545056343,0.009277350269258022,-0.0003662111994344741,0.9996955394744873,-0.18359380960464478,-0.44140639901161194,9.648441314697266,0.0,0.0,-0.001953126396983862
3475,-0.023742692545056343,0.009277350269258022,-0.0003662111994344741,0.9996955394744873,-0.19140632450580597,-0.4609376788139343,9.707035064697266,0.0,0.0,-0.001953126396983862
3481,-0.023742692545056343,0.009277350269258022,-0.0003662111994344741,0.9996955394744873,-0.19140632450580597,-0.4609376788139343,9.707035064697266,0.0,0.0,0.0
3488,-0.023742692545056343,0.009277350269258022,-0.0003662111994344741,0.9996955394744873,-0.19140632450580597,-0.4609376788139343,9.707035064697266,0.0,0.0,0.0
3494,-0.023742692545056343,0.009277350269258022,-0.0003662111994344741,0.9996955394744873,-0.19140632450580597,-0.4609376788139343,9.679691314697266,0.0,0.0,0.0
3501,-0.023742692545056343,0.009277350269258022,-0.0003662111994344741,0.9996955394744873,-0.19140632450580597,-0.4609376788139343,9.679691314697266,0.0,0.0,0.0
3509,-0.023742692545056343,0.009277350269258022,-0.0003662111994344741,0.9996955394744873,-0.19140632450580597,-0.4609376788139343,9.679691314697266,0.0,0.0,0.0
3519,-0.023742692545056343,0.009277350269258022,-0.0003662111994344741,0.9996955394744873,-0.19140632450580597,-0.4609376788139343,9.679691314697266,0.0,0.001953126396983862,0.0
3527,-0.023742692545056343,0.009277350269258022,-0.0003662111994344741,0.9996955394744873,-0.19140632450580597,-0.4609376788139343,9.679691314697266,0.0,0.001953126396983862,0.0
3534,-0.023742692545056343,0.009277350269258022,-0.0003662111994344741,0.9996955394744873,-0.18359380960464478,-0.4609376788139343,9.687503814697266,0.0,0.001953126396983862,0.0
3540,-0.023742692545056343,0.009277350269258022,-0.0003662111994344741,0.9996955394744873,-0.18359380960464478,-0.4609376788139343,9.687503814697266,0.0,0.0,0.001953126396983862
3547,-0.023742692545056343,0.009277350269258022,-0.0003662111994344741,0.9996955394744873,-0.18359380960464478,-0.4609376788139343,9.687503814697266,0.0,0.0,0.001953126396983862
3553,-0.023742692545056343,0.009277350269258022,-0.0003662111994344741,0.9996955394744873,-0.17187505960464478,-0.4804689288139343,9.703128814697266,0.0,0.0,0.001953126396983862
3559,-0.023742692545056343,0.009277350269258022,-0.0003662111994344741,0.9996955394744873,-0.17187505960464478,-0.4804689288139343,9.703128814697266,0.0,0.001953126396983862,0.001953126396983862
3566,-0.023742692545056343,0.009277350269258022,-0.0003662111994344741,0.9996955394744873,-0.17187505960464478,-0.4804689288139343,9.703128814697266,0.0,0.001953126396983862,0.001953126396983862
3572,-0.023742692545056343,0.009277350269258022,-0.0003662111994344741,0.9996955394744873,-0.18359380960464478,-0.4609376788139343,9.707035064697266,0.0,0.001953126396983862,0.001953126396983862
3578,-0.023742692545056343,0.009277350269258022,-0.0003662111994344741,0.9996955394744873,-0.18359380960464478,-0.4609376788139343,9.707035064697266,0.0,0.0,0.001953126396983862
3587,-0.023742692545056343,0.009277350269258022,-0.00030517601408064365,0.9996955394744873,-0.18359380960464478,-0.4609376788139343,9.707035064697266,0.0,0.0,0.001953126396983862
3596,-0.023742692545056343,0.009277350269258022,-0.00030517601408064365,0.9996955394744873,-0.16406255960464478,-0.44921889901161194,9.679691314697266,0.0,0.0,0.001953126396983862
3602,-0.023742692545056343,0.009277350269258022,-0.00030517601408064365,0.9996955394744873,-0.16406255960464478,-0.44921889901161194,9.679691314697266,0.001953126396983862,0.0,0.0
3608,-0.023742692545056343,0.009277350269258022,-0.00030517601408064365,0.9996955394744873,-0.16406255960464478,-0.44921889901161194,9.679691314697266,0.001953126396983862,0.0,0.0
3617,-0.023742692545056343,0.009277350269258022,-0.00030517601408064365,0.9996955394744873,-0.18359380960464478,-0.44140639901161194,9.671878814697266,0.001953126396983862,0.0,0.0
3625,-0.023742692545056343,0.009277350269258022,-0.00030517601408064365,0.9996955394744873,-0.18359380960464478,-0.44140639901161194,9.671878814697266,0.0,0.0,0.0
3632,-0.023742692545056343,0.009277350269258022,-0.00030517601408064365,0.9996955394744873,-0.17187505960464478,-0.4609376788139343,9.687503814697266,0.0,0.0,0.0
3638,-0.023742692545056343,0.009277350269258022,-0.00030517601408064365,0.9996955394744873,-0.17187505960464478,-0.4609376788139343,9.687503814697266,0.0,0.0,0.0
3645,-0.023742692545056343,0.009277350269258022,-0.0003662111994344741,0.9996955394744873,-0.17187505960464478,-0.4609376788139343,9.687503814697266,0.0,0.0,0.0
3650,-0.023742692545056343,0.009277350269258022,-0.0003662111994344741,0.9996955394744873,-0.18359380960464478,-0.4609376788139343,9.687503814697266,0.0,0.0,0.0
3658,-0.023742692545056343,0.009277350269258022,-0.0003662111994344741,0.9996955394744873,-0.18359380960464478,-0.4609376788139343,9.687503814697266,0.0,0.0,0.0
3666,-0.023742692545056343,0.009277350269258022,-0.0003662111994344741,0.9996955394744873,-0.18359380960464478,-0.4609376788139343,9.687503814697266,0.0,0.0,0.0
3673,-0.023742692545056343,0.009277350269258022,-0.0003662111994344741,0.9996955394744873,-0.18359380960464478,-0.44921889901161194,9.707035064697266,0.0,0.0,0.0
3679,-0.023742692545056343,0.009277350269258022,-0.0003662111994344741,0.9996955394744873,-0.18359380960464478,-0.44921889901161194,9.707035064697266,0.0,0.0,0.0
3688,-0.023742692545056343,0.009277350269258022,-0.0003662111994344741,0.9996955394744873,-0.18359380960464478,-0.44921889901161194,9.707035064697266,0.0,0.0,0.0
3695,-0.023742692545056343,0.009277350269258022,-0.0003662111994344741,0.9996955394744873,-0.18359380960464478,-0.44921889901161194,9.679691314697266,0.0,0.0,0.0
3701,-0.023742692545056343,0.009277350269258022,-0.0003662111994344741,0.9996955394744873,-0.18359380960464478,-0.44921889901161194,9.679691314697266,0.0,0.0,0.0
3708,-0.023742692545056343,0.009277350269258022,-0.0003662111994344741,0.9996955394744873,-0.18359380960464478,-0.44921889901161194,9.679691314697266,0.0,0.0,0.0
3718,-0.023742692545056343,0.009277350269258022,-0.0003662111994344741,0.9996955394744873,-0.18359380960464478,-0.44921889901161194,9.679691314697266,0.0,0.0,0.0
3726,-0.023742692545056343,0.009277350269258022,-0.0003662111994344741,0.9996955394744873,-0.18359380960464478,-0.44921889901161194,9.679691314697266,0.0,0.0,0.0
3737,-0.023742692545056343,0.009277350269258022,-0.0003662111994344741,0.9996955394744873,-0.15234380960464478,-0.44921889901161194,9.714847564697266,0.0,0.0,0.0
3745,-0.023742692545056343,0.009277350269258022,-0.0003662111994344741,0.9996955394744873,-0.15234380960464478,-0.44921889901161194,9.714847564697266,0.0,0.0,0.0
3751,-0.023742692545056343,0.009277350269258022,-0.0003662111994344741,0.9996955394744873,-0.18359380960464478,-0.4687501788139343,9.683597564697266,0.0,0.0,0.0
3758,-0.023742692545056343,0.009277350269258022,-0.0003662111994344741,0.9996955394744873,-0.18359380960464478,-0.4687501788139343,9.683597564697266,0.0,0.0,0.0
3764,-0.023742692545056343,0.009277350269258022,-0.0003662111994344741,0.9996955394744873,-0.18359380960464478,-0.4687501788139343,9.683597564697266,0.0,0.0,0.0
3770,-0.023742692545056343,0.009277350269258022,-0.0003662111994344741,0.9996955394744873,-0.19140632450580597,-0.4609376788139343,9.679691314697266,0.0,0.0,0.0
3778,-0.023742692545056343,0.009277350269258022,-0.0003662111994344741,0.9996955394744873,-0.19140632450580597,-0.4609376788139343,9.679691314697266,0.0,0.0,0.0
3796,-0.023742692545056343,0.009277350269258022,-0.0003662111994344741,0.9996955394744873,-0.19140632450580597,-0.4609376788139343,9.679691314697266,0.0,0.0,0.0
3805,-0.023742692545056343,0.009277350269258022,-0.0003662111994344741,0.9996955394744873,-0.19140632450580597,-0.4609376788139343,9.679691314697266,0.0,0.0,0.0
3811,-0.023742692545056343,0.009277350269258022,-0.0003662111994344741,0.9996955394744873,-0.17187505960464478,-0.4609376788139343,9.679691314697266,0.0,0.0,0.0
3817,-0.023742692545056343,0.009277350269258022,-0.0003662111994344741,0.9996955394744873,-0.17187505960464478,-0.4609376788139343,9.679691314697266,0.0,0.0,0.0
3827,-0.023742692545056343,0.009277350269258022,-0.0003662111994344741,0.9996955394744873,-0.17187505960464478,-0.4609376788139343,9.679691314697266,0.0,0.0,0.0
3833,-0.023742692545056343,0.009277350269258022,-0.0003662111994344741,0.9996955394744873,-0.18359380960464478,-0.4687501788139343,9.644535064697266,0.0,0.0,0.0
3840,-0.023742692545056343,0.009277350269258022,-0.0003662111994344741,0.9996955394744873,-0.18359380960464478,-0.4687501788139343,9.644535064697266,0.0,0.0,0.0
3848,-0.023742692545056343,0.009277350269258022,-0.0003662111994344741,0.9996955394744873,-0.18359380960464478,-0.4687501788139343,9.644535064697266,0.0,0.0,0.0
3856,-0.023742692545056343,0.009277350269258022,-0.0003662111994344741,0.9996955394744873,-0.18359380960464478,-0.4687501788139343,9.644535064697266,0.0,0.0,0.0
3864,-0.023742692545056343,0.009277350269258022,-0.0003662111994344741,0.9996955394744873,-0.18359380960464478,-0.4687501788139343,9.644535064697266,0.0,0.0,0.0
3876,-0.023742692545056343,0.009277350269258022,-0.0003662111994344741,0.9996955394744873,-0.19140632450580597,-0.4687501788139343,9.753910064697266,0.0,0.0,0.0
3885,-0.023742692545056343,0.009277350269258022,-0.0003662111994344741,0.9996955394744873,-0.19140632450580597,-0.4687501788139343,9.753910064697266,0.0,0.0,0.0
3891,-0.023742692545056343,0.009277350269258022,-0.0003662111994344741,0.9996955394744873,-0.18359380960464478,-0.4609376788139343,9.652347564697266,0.0,0.0,0.0
3897,-0.023742692545056343,0.009277350269258022,-0.0003662111994344741,0.9996955394744873,-0.18359380960464478,-0.4609376788139343,9.652347564697266,0.0,0.0,0.0
3906,-0.023742692545056343,0.009277350269258022,-0.0003662111994344741,0.9996955394744873,-0.18359380960464478,-0.4609376788139343,9.652347564697266,0.0,0.0,0.0
3914,-0.023742692545056343,0.009277350269258022,-0.0003662111994344741,0.9996955394744873,-0.16406255960464478,-0.4609376788139343,9.726566314697266,0.0,0.0,0.0
3922,-0.023742692545056343,0.009277350269258022,-0.0003662111994344741,0.9996955394744873,-0.16406255960464478,-0.4609376788139343,9.726566314697266,0.0,0.0,0.0
3929,-0.023742692545056343,0.009277350269258022,-0.0003662111994344741,0.9996955394744873,-0.18359380960464478,-0.4609376788139343,9.628910064697266,0.0,0.0,0.0
3935,-0.023742692545056343,0.009277350269258022,-0.0003662111994344741,0.9996955394744873,-0.18359380960464478,-0.4609376788139343,9.628910064697266,0.0,0.0,0.0
3944,-0.023742692545056343,0.009277350269258022,-0.0003662111994344741,0.9996955394744873,-0.18359380960464478,-0.4609376788139343,9.628910064697266,0.0,0.0,0.0
3950,-0.023742692545056343,0.009277350269258022,-0.0003662111994344741,0.9996955394744873,-0.17187505960464478,-0.4609376788139343,9.679691314697266,0.0,0.0,0.0
3956,-0.023742692545056343,0.009277350269258022,-0.0003662111994344741,0.9996955394744873,-0.17187505960464478,-0.4609376788139343,9.679691314697266,0.0,0.0,0.0
3963,-0.023742692545056343,0.009277350269258022,-0.0003662111994344741,0.9996955394744873,-0.17187505960464478,-0.4609376788139343,9.679691314697266,0.0,0.0,0.0
3970,-0.023742692545056343,0.009277350269258022,-0.0003662111994344741,0.9996955394744873,-0.17187505960464478,-0.44921889901161194,9.707035064697266,0.0,0.0,0.0
3976,-0.023742692545056343,0.009277350269258022,-0.0003662111994344741,0.9996955394744873,-0.17187505960464478,-0.44921889901161194,9.707035064697266,0.0,0.0,0.0
3982,-0.023742692545056343,0.009277350269258022,-0.0003662111994344741,0.9996955394744873,-0.17187505960464478,-0.44921889901161194,9.707035064697266,0.0,0.0,0.0
3988,-0.023742692545056343,0.009277350269258022,-0.0003662111994344741,0.9996955394744873,-0.16406255960464478,-0.4804689288139343,9.691410064697266,0.0,0.0,0.0
3994,-0.023742692545056343,0.009277350269258022,-0.0003662111994344741,0.9996955394744873,-0.16406255960464478,-0.4804689288139343,9.691410064697266,0.0,0.0,0.0
4003,-0.023742692545056343,0.009277350269258022,-0.0003662111994344741,0.9996955394744873,-0.16406255960464478,-0.4804689288139343,9.691410064697266,0.0,0.0,0.0
4015,-0.023742692545056343,0.009277350269258022,-0.0003662111994344741,0.9996955394744873,-0.18359380960464478,-0.4609376788139343,9.679691314697266,0.0,0.0,0.0
4024,-0.023742692545056343,0.009277350269258022,-0.0003662111994344741,0.9996955394744873,-0.18359380960464478,-0.4609376788139343,9.679691314697266,0.0,0.0,0.0
4030,-0.023742692545056343,0.009277350269258022,-0.0003662111994344741,0.9996955394744873,-0.19140632450580597,-0.4609376788139343,9.722660064697266,0.0,0.0,0.0
4036,-0.023742692545056343,0.009277350269258022,-0.0003662111994344741,0.9996955394744873,-0.19140632450580597,-0.4609376788139343,9.722660064697266,0.0,0.0,0.0
4042,-0.023742692545056343,0.009277350269258022,-0.0003662111994344741,0.9996955394744873,-0.19140632450580597,-0.4609376788139343,9.722660064697266,0.0,0.0,0.0
4048,-0.023742692545056343,0.009277350269258022,-0.0003662111994344741,0.9996955394744873,-0.16406255960464478,-0.4687501788139343,9.671878814697266,0.0,0.0,0.0
4055,-0.023742692545056343,0.009277350269258022,-0.0003662111994344741,0.9996955394744873,-0.16406255960464478,-0.4687501788139343,9.671878814697266,0.0,0.0,0.0
4062,-0.023742692545056343,0.009277350269258022,-0.0003662111994344741,0.9996955394744873,-0.16406255960464478,-0.4687501788139343,9.671878814697266,0.0,0.0,0.0
4068,-0.023742692545056343,0.009277350269258022,-0.0003662111994344741,0.9996955394744873,-0.17187505960464478,-0.4609376788139343,9.679691314697266,0.0,0.0,0.0
4074,-0.023742692545056343,0.009277350269258022,-0.0003662111994344741,0.9996955394744873,-0.17187505960464478,-0.4609376788139343,9.679691314697266,0.0,0.0,0.0
4082,-0.023742692545056343,0.009277350269258022,-0.0003662111994344741,0.9996955394744873,-0.17187505960464478,-0.4609376788139343,9.679691314697266,0.0,0.0,0.0
4089,-0.023742692545056343,0.009277350269258022,-0.0003662111994344741,0.9996955394744873,-0.18359380960464478,-0.4687501788139343,9.703128814697266,0.0,0.0,0.0
4096,-0.023742692545056343,0.009277350269258022,-0.0003662111994344741,0.9996955394744873,-0.18359380960464478,-0.4687501788139343,9.703128814697266,0.0,0.0,0.0
4102,-0.023742692545056343,0.009277350269258022,-0.0003662111994344741,0.9996955394744873,-0.18359380960464478,-0.4687501788139343,9.703128814697266,0.0,0.0,0.0
4108,-0.023742692545056343,0.009277350269258022,-0.0003662111994344741,0.9996955394744873,-0.19140632450580597,-0.44921889901161194,9.687503814697266,0.0,0.0,0.0
4114,-0.023742692545056343,0.009277350269258022,-0.0003662111994344741,0.9996955394744873,-0.19140632450580597,-0.44921889901161194,9.687503814697266,0.0,0.0,0.0
4121,-0.023742692545056343,0.009277350269258022,-0.0003662111994344741,0.9996955394744873,-0.19140632450580597,-0.44921889901161194,9.687503814697266,0.0,0.0,0.0
4127,-0.023742692545056343,0.009277350269258022,-0.0003662111994344741,0.9996955394744873,-0.17187505960464478,-0.4804689288139343,9.691410064697266,0.0,0.0,0.0
4133,-0.023742692545056343,0.009277350269258022,-0.0003662111994344741,0.9996955394744873,-0.17187505960464478,-0.4804689288139343,9.691410064697266,0.0,0.0,0.0
4142,-0.023742692545056343,0.009277350269258022,-0.0003662111994344741,0.9996955394744873,-0.17187505960464478,-0.4804689288139343,9.691410064697266,0.0,0.0,0.0
4153,-0.023742692545056343,0.009277350269258022,-0.0003662111994344741,0.9996955394744873,-0.18359380960464478,-0.4609376788139343,9.710941314697266,0.0,0.0,0.0
4162,-0.023742692545056343,0.009277350269258022,-0.0003662111994344741,0.9996955394744873,-0.18359380960464478,-0.4609376788139343,9.710941314697266,0.0,0.0,0.0
4168,-0.023742692545056343,0.009277350269258022,-0.0003662111994344741,0.9996955394744873,-0.18359380960464478,-0.4804689288139343,9.703128814697266,0.0,0.0,0.0
4174,-0.023742692545056343,0.009277350269258022,-0.0003662111994344741,0.9996955394744873,-0.18359380960464478,-0.4804689288139343,9.703128814697266,0.0,0.0,0.0
4180,-0.023742692545056343,0.009277350269258022,-0.0003662111994344741,0.9996955394744873,-0.18359380960464478,-0.4804689288139343,9.703128814697266,0.0,0.0,0.0
4187,-0.023742692545056343,0.009277350269258022,-0.0003662111994344741,0.9996955394744873,-0.18359380960464478,-0.4609376788139343,9.687503814697266,0.0,0.0,0.0
4193,-0.023742692545056343,0.009277350269258022,-0.0003662111994344741,0.9996955394744873,-0.18359380960464478,-0.4609376788139343,9.687503814697266,0.0,0.0,0.0
4200,-0.023742692545056343,0.009277350269258022,-0.0003662111994344741,0.9996955394744873,-0.18359380960464478,-0.4609376788139343,9.687503814697266,0.0,0.0,0.0
4206,-0.023742692545056343,0.009277350269258022,-0.0003662111994344741,0.9996955394744873,-0.16406255960464478,-0.4687501788139343,9.683597564697266,0.0,0.0,0.0
4212,-0.023742692545056343,0.009277350269258022,-0.0003662111994344741,0.9996955394744873,-0.16406255960464478,-0.4687501788139343,9.683597564697266,0.0,0.0,0.0
4220,-0.023742692545056343,0.009277350269258022,-0.0003662111994344741,0.9996955394744873,-0.16406255960464478,-0.4687501788139343,9.683597564697266,0.0,0.0,0.0
4229,-0.023742692545056343,0.009277350269258022,-0.0003662111994344741,0.9996955394744873,-0.18359380960464478,-0.4687501788139343,9.703128814697266,0.0,0.0,0.0
4235,-0.023742692545056343,0.009277350269258022,-0.0003662111994344741,0.9996955394744873,-0.18359380960464478,-0.4687501788139343,9.703128814697266,0.0,0.0,0.0
4241,-0.023742692545056343,0.009277350269258022,-0.0003662111994344741,0.9996955394744873,-0.18359380960464478,-0.4687501788139343,9.703128814697266,0.0,0.0,0.0
4247,-0.023742692545056343,0.009277350269258022,-0.0003662111994344741,0.9996955394744873,-0.16406255960464478,-0.4609376788139343,9.707035064697266,0.0,0.0,0.0
4253,-0.023742692545056343,0.009277350269258022,-0.0003662111994344741,0.9996955394744873,-0.16406255960464478,-0.4609376788139343,9.707035064697266,0.0,0.0,0.0
4260,-0.023742692545056343,0.009277350269258022,-0.0003662111994344741,0.9996955394744873,-0.16406255960464478,-0.4609376788139343,9.707035064697266,0.0,0.0,0.0
4267,-0.023742692545056343,0.009277350269258022,-0.0003662111994344741,0.9996955394744873,-0.17187505960464478,-0.4687501788139343,9.683597564697266,0.0,0.0,0.0
4273,-0.023742692545056343,0.009277350269258022,-0.0003662111994344741,0.9996955394744873,-0.17187505960464478,-0.4687501788139343,9.683597564697266,0.0,0.0,0.0
4281,-0.023742692545056343,0.009277350269258022,-0.0003662111994344741,0.9996955394744873,-0.17187505960464478,-0.4687501788139343,9.683597564697266,0.0,0.0,0.0
4291,-0.023742692545056343,0.009277350269258022,-0.0003662111994344741,0.9996955394744873,-0.17187505960464478,-0.4687501788139343,9.683597564697266,0.0,0.0,0.0
4299,-0.023742692545056343,0.009277350269258022,-0.0003662111994344741,0.9996955394744873,-0.17187505960464478,-0.4687501788139343,9.683597564697266,0.0,0.0,0.0
4305,-0.023742692545056343,0.009277350269258022,-0.0003662111994344741,0.9996955394744873,-0.19140632450580597,-0.4687501788139343,9.703128814697266,0.0,0.0,0.0
4312,-0.023742692545056343,0.009277350269258022,-0.0003662111994344741,0.9996955394744873,-0.19140632450580597,-0.4687501788139343,9.703128814697266,0.0,0.0,0.0
4319,-0.023742692545056343,0.009277350269258022,-0.0003662111994344741,0.9996955394744873,-0.19140632450580597,-0.4687501788139343,9.703128814697266,0.0,0.0,0.0
4324,-0.023742692545056343,0.009277350269258022,-0.0003662111994344741,0.9996955394744873,-0.18359380960464478,-0.4609376788139343,9.722660064697266,0.0,0.0,0.0
4330,-0.023742692545056343,0.009277350269258022,-0.0003662111994344741,0.9996955394744873,-0.18359380960464478,-0.4609376788139343,9.722660064697266,0.0,0.0,0.0
4337,-0.023742692545056343,0.009277350269258022,-0.0003662111994344741,0.9996955394744873,-0.18359380960464478,-0.4609376788139343,9.722660064697266,0.0,0.0,0.0
4343,-0.023742692545056343,0.009277350269258022,-0.0003662111994344741,0.9996955394744873,-0.17187505960464478,-0.4609376788139343,9.707035064697266,0.0,0.0,0.0
4350,-0.023742692545056343,0.009277350269258022,-0.0003662111994344741,0.9996955394744873,-0.17187505960464478,-0.4609376788139343,9.707035064697266,0.0,0.0,0.0
4360,-0.023742692545056343,0.009277350269258022,-0.0003662111994344741,0.9996955394744873,-0.17187505960464478,-0.4609376788139343,9.707035064697266,0.0,0.0,0.0
4367,-0.023742692545056343,0.009277350269258022,-0.0003662111994344741,0.9996955394744873,-0.19921882450580597,-0.44921889901161194,9.691410064697266,0.0,0.0,0.0
4373,-0.023742692545056343,0.009277350269258022,-0.0003662111994344741,0.9996955394744873,-0.19921882450580597,-0.44921889901161194,9.691410064697266,0.0,0.0,0.0
4380,-0.023742692545056343,0.009277350269258022,-0.0003662111994344741,0.9996955394744873,-0.19921882450580597,-0.44921889901161194,9.691410064697266,0.0,0.0,0.0
4386,-0.023742692545056343,0.009277350269258022,-0.0003662111994344741,0.9996955394744873,-0.17187505960464478,-0.4609376788139343,9.687503814697266,0.0,0.0,0.0
4392,-0.023742692545056343,0.009277350269258022,-0.0003662111994344741,0.9996955394744873,-0.17187505960464478,-0.4609376788139343,9.687503814697266,0.0,0.0,0.0
4399,-0.023742692545056343,0.009277350269258022,-0.0003662111994344741,0.9996955394744873,-0.17187505960464478,-0.4609376788139343,9.687503814697266,0.0,0.0,0.0
4405,-0.023742692545056343,0.009277350269258022,-0.0003662111994344741,0.9996955394744873,-0.18359380960464478,-0.4687501788139343,9.703128814697266,0.0,0.0,0.0
4411,-0.023742692545056343,0.009277350269258022,-0.0003662111994344741,0.9996955394744873,-0.18359380960464478,-0.4687501788139343,9.703128814697266,0.0,0.0,0.0
4419,-0.023742692545056343,0.009277350269258022,-0.0003662111994344741,0.9996955394744873,-0.18359380960464478,-0.4687501788139343,9.703128814697266,0.0,0.0,0.0
4429,-0.023742692545056343,0.009277350269258022,-0.0003662111994344741,0.9996955394744873,-0.18359380960464478,-0.4687501788139343,9.703128814697266,0.0,0.0,0.0
4438,-0.023742692545056343,0.009277350269258022,-0.0003662111994344741,0.9996955394744873,-0.18359380960464478,-0.4687501788139343,9.703128814697266,0.0,0.0,0.0
4444,-0.023742692545056343,0.009277350269258022,-0.0003662111994344741,0.9996955394744873,-0.19140632450580597,-0.4609376788139343,9.679691314697266,0.0,0.0,0.0
4450,-0.023742692545056343,0.009277350269258022,-0.0003662111994344741,0.9996955394744873,-0.19140632450580597,-0.4609376788139343,9.679691314697266,0.0,0.0,0.0
4457,-0.023742692545056343,0.009277350269258022,-0.0003662111994344741,0.9996955394744873,-0.19140632450580597,-0.4609376788139343,9.679691314697266,0.0,0.0,0.0
4463,-0.023742692545056343,0.009277350269258022,-0.0003662111994344741,0.9996955394744873,-0.18359380960464478,-0.44921889901161194,9.679691314697266,0.0,0.0,0.0
4469,-0.023742692545056343,0.009277350269258022,-0.0003662111994344741,0.9996955394744873,-0.18359380960464478,-0.44921889901161194,9.679691314697266,0.0,0.0,0.0
4475,-0.023742692545056343,0.009277350269258022,-0.0003662111994344741,0.9996955394744873,-0.18359380960464478,-0.44921889901161194,9.679691314697266,0.0,0.0,0.0
4482,-0.023742692545056343,0.009277350269258022,-0.0003662111994344741,0.9996955394744873,-0.18359380960464478,-0.4609376788139343,9.710941314697266,0.0,0.0,0.0
4489,-0.023742692545056343,0.009277350269258022,-0.0003662111994344741,0.9996955394744873,-0.18359380960464478,-0.4609376788139343,9.710941314697266,0.0,0.0,0.0
4497,-0.023742692545056343,0.009277350269258022,-0.0003662111994344741,0.9996955394744873,-0.18359380960464478,-0.4609376788139343,9.710941314697266,0.0,0.0,0.0
4506,-0.023742692545056343,0.009277350269258022,-0.0003662111994344741,0.9996955394744873,-0.18359380960464478,-0.44921889901161194,9.667972564697266,0.0,0.0,0.0
4512,-0.023742692545056343,0.009277350269258022,-0.0003662111994344741,0.9996955394744873,-0.18359380960464478,-0.44921889901161194,9.667972564697266,0.0,0.0,0.0
4518,-0.023742692545056343,0.009277350269258022,-0.0003662111994344741,0.9996955394744873,-0.18359380960464478,-0.44921889901161194,9.667972564697266,0.0,0.0,0.0
4525,-0.023742692545056343,0.009277350269258022,-0.0003662111994344741,0.9996955394744873,-0.19140632450580597,-0.44921889901161194,9.687503814697266,0.0,0.0,0.0
4531,-0.023742692545056343,0.009277350269258022,-0.0003662111994344741,0.9996955394744873,-0.19140632450580597,-0.44921889901161194,9.687503814697266,0.0,0.0,0.0
4537,-0.023742692545056343,0.009277350269258022,-0.0003662111994344741,0.9996955394744873,-0.19140632450580597,-0.44921889901161194,9.687503814697266,0.0,0.0,0.0
4543,-0.023742692545056343,0.009277350269258022,-0.0003662111994344741,0.9996955394744873,-0.18359380960464478,-0.4609376788139343,9.687503814697266,0.0,0.0,0.0
4549,-0.023742692545056343,0.009277350269258022,-0.0003662111994344741,0.9996955394744873,-0.18359380960464478,-0.4609376788139343,9.687503814697266,0.0,0.0,0.0
4557,-0.023742692545056343,0.009277350269258022,-0.0003662111994344741,0.9996955394744873,-0.18359380960464478,-0.4609376788139343,9.687503814697266,0.0,0.0,0.0
4569,-0.023742692545056343,0.009277350269258022,-0.0003662111994344741,0.9996955394744873,-0.18359380960464478,-0.4609376788139343,9.687503814697266,0.0,0.0,0.0
4577,-0.023742692545056343,0.009277350269258022,-0.0003662111994344741,0.9996955394744873,-0.18359380960464478,-0.4609376788139343,9.687503814697266,0.0,0.0,0.0
4583,-0.023742692545056343,0.009277350269258022,-0.0003662111994344741,0.9996955394744873,-0.17187505960464478,-0.4609376788139343,9.707035064697266,0.0,0.0,0.0
4589,-0.023742692545056343,0.009277350269258022,-0.0003662111994344741,0.9996955394744873,-0.17187505960464478,-0.4609376788139343,9.707035064697266,0.0,0.0,0.0
4599,-0.023742692545056343,0.009277350269258022,-0.0003662111994344741,0.9996955394744873,-0.17187505960464478,-0.4609376788139343,9.707035064697266,0.0,0.0,0.0
4605,-0.023742692545056343,0.009277350269258022,-0.0003662111994344741,0.9996955394744873,-0.17187505960464478,-0.44921889901161194,9.710941314697266,0.0,0.0,0.0
4612,-0.023742692545056343,0.009277350269258022,-0.0003662111994344741,0.9996955394744873,-0.17187505960464478,-0.44921889901161194,9.710941314697266,0.0,0.0,0.0
4620,-0.023742692545056343,0.009277350269258022,-0.0003662111994344741,0.9996955394744873,-0.17187505960464478,-0.44921889901161194,9.710941314697266,0.0,0.0,0.0
4628,-0.023742692545056343,0.009277350269258022,-0.0003662111994344741,0.9996955394744873,-0.17187505960464478,-0.44921889901161194,9.710941314697266,0.0,0.0,0.0
4636,-0.023742692545056343,0.009277350269258022,-0.0003662111994344741,0.9996955394744873,-0.17187505960464478,-0.44921889901161194,9.710941314697266,0.0,0.0,0.0
4644,-0.023742692545056343,0.009277350269258022,-0.0003662111994344741,0.9996955394744873,-0.18359380960464478,-0.4804689288139343,9.683597564697266,0.0,0.0,0.0
4651,-0.023742692545056343,0.009277350269258022,-0.0003662111994344741,0.9996955394744873,-0.18359380960464478,-0.4804689288139343,9.683597564697266,0.0,0.0,0.0
4657,-0.023742692545056343,0.009277350269258022,-0.0003662111994344741,0.9996955394744873,-0.18359380960464478,-0.4804689288139343,9.683597564697266,0.0,0.0,0.0
4663,-0.023742692545056343,0.009277350269258022,-0.0003662111994344741,0.9996955394744873,-0.16406255960464478,-0.4609376788139343,9.679691314697266,0.0,0.0,0.0
4669,-0.023742692545056343,0.009277350269258022,-0.0003662111994344741,0.9996955394744873,-0.16406255960464478,-0.4609376788139343,9.679691314697266,0.0,0.0,0.0
4676,-0.023742692545056343,0.009277350269258022,-0.0003662111994344741,0.9996955394744873,-0.16406255960464478,-0.4609376788139343,9.679691314697266,0.0,0.0,0.0
4682,-0.023742692545056343,0.009277350269258022,-0.0003662111994344741,0.9996955394744873,-0.18359380960464478,-0.4609376788139343,9.679691314697266,0.0,0.0,0.0
4688,-0.023742692545056343,0.009277350269258022,-0.0003662111994344741,0.9996955394744873,-0.18359380960464478,-0.4609376788139343,9.679691314697266,0.0,0.0,0.0
4697,-0.023742692545056343,0.009277350269258022,-0.0003662111994344741,0.9996955394744873,-0.18359380960464478,-0.4609376788139343,9.679691314697266,0.0,0.0,0.0
4707,-0.023742692545056343,0.009277350269258022,-0.0003662111994344741,0.9996955394744873,-0.18359380960464478,-0.4609376788139343,9.679691314697266,0.0,0.0,0.0
4715,-0.023742692545056343,0.009277350269258022,-0.0003662111994344741,0.9996955394744873,-0.18359380960464478,-0.4609376788139343,9.679691314697266,0.0,0.0,0.0
4721,-0.023742692545056343,0.009277350269258022,-0.0003662111994344741,0.9996955394744873,-0.18359380960464478,-0.4609376788139343,9.687503814697266,0.0,0.0,0.0
4727,-0.023742692545056343,0.009277350269258022,-0.0003662111994344741,0.9996955394744873,-0.18359380960464478,-0.4609376788139343,9.687503814697266,0.0,0.0,0.0
4738,-0.023742692545056343,0.009277350269258022,-0.0003662111994344741,0.9996955394744873,-0.18359380960464478,-0.4609376788139343,9.687503814697266,0.0,0.0,0.0
4744,-0.023742692545056343,0.009277350269258022,-0.0003662111994344741,0.9996955394744873,-0.18359380960464478,-0.4687501788139343,9.691410064697266,0.0,0.0,0.0
4750,-0.023742692545056343,0.009277350269258022,-0.0003662111994344741,0.9996955394744873,-0.18359380960464478,-0.4687501788139343,9.691410064697266,0.0,0.0,0.0
4758,-0.023742692545056343,0.009277350269258022,-0.0003662111994344741,0.9996955394744873,-0.18359380960464478,-0.4687501788139343,9.691410064697266,0.0,0.0,0.0
4767,-0.023742692545056343,0.009277350269258022,-0.0003662111994344741,0.9996955394744873,-0.18359380960464478,-0.4687501788139343,9.691410064697266,0.0,0.0,0.0
4784,-0.023742692545056343,0.009277350269258022,-0.0003662111994344741,0.9996955394744873,-0.18359380960464478,-0.4609376788139343,9.679691314697266,0.0,0.0,0.0
4790,-0.023742692545056343,0.009277350269258022,-0.0003662111994344741,0.9996955394744873,-0.18359380960464478,-0.4609376788139343,9.679691314697266,0.0,0.0,0.0
4796,-0.023742692545056343,0.009277350269258022,-0.0003662111994344741,0.9996955394744873,-0.18359380960464478,-0.4609376788139343,9.679691314697266,0.0,0.0,0.0
4803,-0.023742692545056343,0.009277350269258022,-0.0003662111994344741,0.9996955394744873,-0.19140632450580597,-0.4687501788139343,9.714847564697266,0.0,0.0,0.0
4809,-0.023742692545056343,0.009277350269258022,-0.0003662111994344741,0.9996955394744873,-0.19140632450580597,-0.4687501788139343,9.714847564697266,0.0,0.0,0.0
4815,-0.023742692545056343,0.009277350269258022,-0.0003662111994344741,0.9996955394744873,-0.19140632450580597,-0.4687501788139343,9.714847564697266,0.0,0.0,0.0
4822,-0.023742692545056343,0.009277350269258022,-0.0003662111994344741,0.9996955394744873,-0.18359380960464478,-0.44921889901161194,9.652347564697266,0.0,0.0,0.0
4828,-0.023742692545056343,0.009277350269258022,-0.0003662111994344741,0.9996955394744873,-0.18359380960464478,-0.44921889901161194,9.652347564697266,0.0,0.0,0.0
4836,-0.023742692545056343,0.009277350269258022,-0.0003662111994344741,0.9996955394744873,-0.18359380960464478,-0.44921889901161194,9.652347564697266,0.0,0.0,0.0
4845,-0.023742692545056343,0.009277350269258022,-0.0003662111994344741,0.9996955394744873,-0.18359380960464478,-0.44921889901161194,9.652347564697266,0.0,0.0,0.0
4853,-0.023742692545056343,0.009277350269258022,-0.0003662111994344741,0.9996955394744873,-0.18359380960464478,-0.44921889901161194,9.652347564697266,0.0,0.0,0.0
4859,-0.023742692545056343,0.009277350269258022,-0.0003662111994344741,0.9996955394744873,-0.18359380960464478,-0.4687501788139343,9.714847564697266,0.0,0.0,0.0
4866,-0.023742692545056343,0.009277350269258022,-0.0003662111994344741,0.9996955394744873,-0.18359380960464478,-0.4687501788139343,9.714847564697266,0.0,0.0,0.0
4873,-0.023742692545056343,0.009277350269258022,-0.0003662111994344741,0.9996955394744873,-0.18359380960464478,-0.4687501788139343,9.714847564697266,0.0,0.0,0.0
4879,-0.023742692545056343,0.009277350269258022,-0.0003662111994344741,0.9996955394744873,-0.19140632450580597,-0.4609376788139343,9.652347564697266,0.0,0.0,0.0
4885,-0.023742692545056343,0.009277350269258022,-0.0003662111994344741,0.9996955394744873,-0.19140632450580597,-0.4609376788139343,9.652347564697266,0.0,0.0,0.0
4892,-0.023742692545056343,0.009277350269258022,-0.0003662111994344741,0.9996955394744873,-0.19140632450580597,-0.4609376788139343,9.652347564697266,0.0,0.0,0.0
4898,-0.023742692545056343,0.009277350269258022,-0.0003662111994344741,0.9996955394744873,-0.19921882450580597,-0.4687501788139343,9.722660064697266,0.0,0.0,0.0
4904,-0.023742692545056343,0.009277350269258022,-0.0003662111994344741,0.9996955394744873,-0.19921882450580597,-0.4687501788139343,9.722660064697266,0.0,0.0,0.0
4913,-0.023742692545056343,0.009277350269258022,-0.0003662111994344741,0.9996955394744873,-0.19921882450580597,-0.4687501788139343,9.722660064697266,0.0,0.0,0.0
4922,-0.023742692545056343,0.009277350269258022,-0.0003662111994344741,0.9996955394744873,-0.19140632450580597,-0.4687501788139343,9.718753814697266,0.0,0.0,0.0
4928,-0.023742692545056343,0.009277350269258022,-0.0003662111994344741,0.9996955394744873,-0.19140632450580597,-0.4687501788139343,9.718753814697266,0.0,0.0,0.0
4934,-0.023742692545056343,0.009277350269258022,-0.0003662111994344741,0.9996955394744873,-0.19140632450580597,-0.4687501788139343,9.718753814697266,0.0,0.0,0.0
4941,-0.023742692545056343,0.009277350269258022,-0.0003662111994344741,0.9996955394744873,-0.19140632450580597,-0.44921889901161194,9.687503814697266,0.0,0.0,0.0
4947,-0.023742692545056343,0.009277350269258022,-0.0003662111994344741,0.9996955394744873,-0.19140632450580597,-0.44921889901161194,9.687503814697266,0.0,0.0,0.0
4954,-0.023742692545056343,0.009277350269258022,-0.0003662111994344741,0.9996955394744873,-0.19140632450580597,-0.44921889901161194,9.687503814697266,0.0,0.0,0.0
4960,-0.023742692545056343,0.009277350269258022,-0.0003662111994344741,0.9996955394744873,-0.17187505960464478,-0.4609376788139343,9.687503814697266,0.0,0.0,0.0
4966,-0.023742692545056343,0.009277350269258022,-0.0003662111994344741,0.9996955394744873,-0.17187505960464478,-0.4609376788139343,9.687503814697266,0.0,0.0,0.0
4974,-0.023742692545056343,0.009277350269258022,-0.0003662111994344741,0.9996955394744873,-0.17187505960464478,-0.4609376788139343,9.687503814697266,0.0,0.0,0.0
4984,-0.023742692545056343,0.009277350269258022,-0.0003662111994344741,0.9996955394744873,-0.17187505960464478,-0.4609376788139343,9.687503814697266,0.0,0.0,0.0
4993,-0.023742692545056343,0.009277350269258022,-0.0003662111994344741,0.9996955394744873,-0.17187505960464478,-0.4609376788139343,9.687503814697266,0.0,0.0,0.0
4999,-0.023742692545056343,0.009277350269258022,-0.0003662111994344741,0.9996955394744873,-0.19140632450580597,-0.4609376788139343,9.679691314697266,0.0,0.0,0.0
5005,-0.023742692545056343,0.009277350269258022,-0.0003662111994344741,0.9996955394744873,-0.19140632450580597,-0.4609376788139343,9.679691314697266,0.0,0.0,0.0
5014,-0.023742692545056343,0.009277350269258022,-0.0003662111994344741,0.9996955394744873,-0.19140632450580597,-0.4609376788139343,9.679691314697266,0.0,0.0,0.0
5021,-0.023742692545056343,0.009277350269258022,-0.0003662111994344741,0.9996955394744873,-0.18359380960464478,-0.44921889901161194,9.707035064697266,0.0,0.0,0.0
5027,-0.023742692545056343,0.009277350269258022,-0.0003662111994344741,0.9996955394744873,-0.18359380960464478,-0.44921889901161194,9.707035064697266,0.0,0.0,0.0
5036,-0.023742692545056343,0.009277350269258022,-0.0003662111994344741,0.9996955394744873,-0.18359380960464478,-0.44921889901161194,9.707035064697266,0.0,0.0,0.0
5044,-0.023742692545056343,0.009277350269258022,-0.0003662111994344741,0.9996955394744873,-0.18359380960464478,-0.44921889901161194,9.707035064697266,0.0,0.0,0.0
5052,-0.023742692545056343,0.009277350269258022,-0.0003662111994344741,0.9996955394744873,-0.18359380960464478,-0.44921889901161194,9.707035064697266,0.0,0.0,0.0
5063,-0.023742692545056343,0.009277350269258022,-0.0003662111994344741,0.9996955394744873,-0.17187505960464478,-0.44921889901161194,9.707035064697266,0.0,0.0,0.0
5072,-0.023742692545056343,0.009277350269258022,-0.0003662111994344741,0.9996955394744873,-0.17187505960464478,-0.44921889901161194,9.707035064697266,0.0,0.0,0.0
5079,-0.023742692545056343,0.009277350269258022,-0.0003662111994344741,0.9996955394744873,-0.19140632450580597,-0.44921889901161194,9.667972564697266,0.0,0.0,0.0
5084,-0.023742692545056343,0.009277350269258022,-0.0003662111994344741,0.9996955394744873,-0.19140632450580597,-0.44921889901161194,9.667972564697266,0.0,0.0,0.0
5094,-0.023742692545056343,0.009277350269258022,-0.0003662111994344741,0.9996955394744873,-0.19140632450580597,-0.44921889901161194,9.667972564697266,0.0,0.0,0.0
5100,-0.023742692545056343,0.009277350269258022,-0.0003662111994344741,0.9996955394744873,-0.19921882450580597,-0.4609376788139343,9.714847564697266,0.0,0.0,0.0
5108,-0.023742692545056343,0.009277350269258022,-0.0003662111994344741,0.9996955394744873,-0.19921882450580597,-0.4609376788139343,9.714847564697266,0.0,0.0,0.0
5114,-0.023742692545056343,0.009277350269258022,-0.0003662111994344741,0.9996955394744873,-0.19140632450580597,-0.4687501788139343,9.691410064697266,0.0,0.0,0.0
5123,-0.023742692545056343,0.009277350269258022,-0.0003662111994344741,0.9996955394744873,-0.19140632450580597,-0.4687501788139343,9.691410064697266,0.0,0.0,0.0
5132,-0.023742692545056343,0.009277350269258022,-0.0003662111994344741,0.9996955394744873,-0.19140632450580597,-0.4687501788139343,9.691410064697266,0.0,0.0,0.0
5137,-0.023742692545056343,0.009277350269258022,-0.0003662111994344741,0.9996955394744873,-0.18359380960464478,-0.4804689288139343,9.714847564697266,0.0,0.0,0.0
5143,-0.023742692545056343,0.009277350269258022,-0.0003662111994344741,0.9996955394744873,-0.18359380960464478,-0.4804689288139343,9.714847564697266,0.0,0.0,0.0
5153,-0.023742692545056343,0.009277350269258022,-0.0003662111994344741,0.9996955394744873,-0.18359380960464478,-0.4804689288139343,9.714847564697266,0.0,0.0,0.0
5159,-0.023742692545056343,0.009277350269258022,-0.0003662111994344741,0.9996955394744873,-0.16406255960464478,-0.4687501788139343,9.664066314697266,0.0,0.0,0.0
5166,-0.023742692545056343,0.009277350269258022,-0.0003662111994344741,0.9996955394744873,-0.16406255960464478,-0.4687501788139343,9.664066314697266,0.0,0.0,0.0
5174,-0.023742692545056343,0.009338385425508022,-0.0003662111994344741,0.9996955394744873,-0.16406255960464478,-0.4687501788139343,9.664066314697266,0.0,0.0,0.0
5182,-0.023742692545056343,0.009338385425508022,-0.0003662111994344741,0.9996955394744873,-0.16406255960464478,-0.4687501788139343,9.664066314697266,0.0,0.0,0.0
5190,-0.023742692545056343,0.009338385425508022,-0.0003662111994344741,0.9996955394744873,-0.16406255960464478,-0.4687501788139343,9.664066314697266,0.0,0.0,0.0
5200,-0.023742692545056343,0.009338385425508022,-0.0003662111994344741,0.9996955394744873,-0.17187505960464478,-0.4609376788139343,9.707035064697266,0.0,0.0,0.0
5209,-0.023742692545056343,0.009338385425508022,-0.0003662111994344741,0.9996955394744873,-0.17187505960464478,-0.4609376788139343,9.707035064697266,0.0,0.0,0.0
5215,-0.023742692545056343,0.009338385425508022,-0.0003662111994344741,0.9996955394744873,-0.17187505960464478,-0.4609376788139343,9.707035064697266,0.0,0.0,0.0
5221,-0.023742692545056343,0.009338385425508022,-0.0003662111994344741,0.9996955394744873,-0.17187505960464478,-0.4609376788139343,9.707035064697266,0.0,0.0,0.0
5228,-0.023742692545056343,0.009338385425508022,-0.0003662111994344741,0.9996955394744873,-0.17187505960464478,-0.4609376788139343,9.707035064697266,0.0,0.0,0.0
5234,-0.023742692545056343,0.009338385425508022,-0.0003662111994344741,0.9996955394744873,-0.19140632450580597,-0.4687501788139343,9.683597564697266,0.0,0.0,0.0
5241,-0.023742692545056343,0.009338385425508022,-0.0003662111994344741,0.9996955394744873,-0.19140632450580597,-0.4687501788139343,9.683597564697266,0.0,0.0,0.0
5248,-0.023742692545056343,0.009338385425508022,-0.0003662111994344741,0.9996955394744873,-0.19140632450580597,-0.4687501788139343,9.683597564697266,0.0,0.0,0.0
5254,-0.023742692545056343,0.009338385425508022,-0.0003662111994344741,0.9996955394744873,-0.19921882450580597,-0.4687501788139343,9.679691314697266,0.0,0.0,0.0
5262,-0.023742692545056343,0.009338385425508022,-0.0003662111994344741,0.9996955394744873,-0.19921882450580597,-0.4687501788139343,9.679691314697266,0.0,0.0,0.0
5277,-0.023742692545056343,0.009338385425508022,-0.0003662111994344741,0.9996955394744873,-0.19921882450580597,-0.44921889901161194,9.703128814697266,0.0,0.0,0.0
5283,-0.023742692545056343,0.009338385425508022,-0.0003662111994344741,0.9996955394744873,-0.19921882450580597,-0.44921889901161194,9.703128814697266,0.0,0.0,0.0
5291,-0.023742692545056343,0.009338385425508022,-0.0003662111994344741,0.9996955394744873,-0.19921882450580597,-0.44921889901161194,9.703128814697266,0.0,0.0,0.0
5297,-0.023742692545056343,0.009338385425508022,-0.0003662111994344741,0.9996955394744873,-0.18359380960464478,-0.4687501788139343,9.703128814697266,0.0,0.0,0.0
5303,-0.023742692545056343,0.009338385425508022,-0.0003662111994344741,0.9996955394744873,-0.18359380960464478,-0.4687501788139343,9.703128814697266,0.0,0.0,0.0
5309,-0.023742692545056343,0.009399420581758022,-0.0003662111994344741,0.9996955394744873,-0.18359380960464478,-0.4687501788139343,9.703128814697266,0.0,0.0,0.0
5315,-0.023742692545056343,0.009399420581758022,-0.0003662111994344741,0.9996955394744873,-0.19140632450580597,-0.44921889901161194,9.707035064697266,0.0,0.0,0.0
5321,-0.023742692545056343,0.009399420581758022,-0.0003662111994344741,0.9996955394744873,-0.19140632450580597,-0.44921889901161194,9.707035064697266,0.0,0.0,0.0
5329,-0.023742692545056343,0.009399420581758022,-0.0003662111994344741,0.9996955394744873,-0.19140632450580597,-0.44921889901161194,9.707035064697266,0.0,0.0,0.0
5340,-0.023742692545056343,0.009399420581758022,-0.0003662111994344741,0.9996955394744873,-0.19140632450580597,-0.4609376788139343,9.722660064697266,0.0,0.0,0.0
5347,-0.023742692545056343,0.009399420581758022,-0.0003662111994344741,0.9996955394744873,-0.19140632450580597,-0.4609376788139343,9.722660064697266,0.0,0.0,0.0
5354,-0.023742692545056343,0.009399420581758022,-0.0003662111994344741,0.9996955394744873,-0.17187505960464478,-0.44921889901161194,9.707035064697266,0.0,0.0,0.0
5360,-0.023742692545056343,0.009399420581758022,-0.0003662111994344741,0.9996955394744873,-0.17187505960464478,-0.44921889901161194,9.707035064697266,0.0,0.0,0.0
5367,-0.023742692545056343,0.009399420581758022,-0.0003662111994344741,0.9996955394744873,-0.17187505960464478,-0.44921889901161194,9.707035064697266,0.0,0.0,0.0
5373,-0.023742692545056343,0.009399420581758022,-0.0003662111994344741,0.9996955394744873,-0.18359380960464478,-0.4609376788139343,9.675785064697266,0.0,0.0,0.0
5380,-0.023742692545056343,0.009399420581758022,-0.0003662111994344741,0.9996955394744873,-0.18359380960464478,-0.4609376788139343,9.675785064697266,0.0,0.0,0.0
5386,-0.023742692545056343,0.009399420581758022,-0.0003662111994344741,0.9996955394744873,-0.18359380960464478,-0.4609376788139343,9.675785064697266,0.0,0.0,0.0
5392,-0.023742692545056343,0.009399420581758022,-0.0003662111994344741,0.9996955394744873,-0.19140632450580597,-0.4609376788139343,9.679691314697266,0.0,0.0,0.0
5399,-0.023742692545056343,0.009399420581758022,-0.0003662111994344741,0.9996955394744873,-0.19140632450580597,-0.4609376788139343,9.679691314697266,0.0,0.0,0.0
5407,-0.023742692545056343,0.009399420581758022,-0.0003662111994344741,0.9996955394744873,-0.19140632450580597,-0.4609376788139343,9.679691314697266,0.0,0.0,0.0
5415,-0.023742692545056343,0.009399420581758022,-0.0003662111994344741,0.9996955394744873,-0.18359380960464478,-0.4687501788139343,9.703128814697266,0.0,0.0,0.0
5422,-0.023742692545056343,0.009399420581758022,-0.0003662111994344741,0.9996955394744873,-0.18359380960464478,-0.4687501788139343,9.703128814697266,0.0,0.0,0.0
5428,-0.023742692545056343,0.009399420581758022,-0.0003662111994344741,0.9996955394744873,-0.18359380960464478,-0.4687501788139343,9.703128814697266,0.0,0.0,0.0
5434,-0.023742692545056343,0.009399420581758022,-0.0003662111994344741,0.9996955394744873,-0.17187505960464478,-0.4609376788139343,9.707035064697266,0.0,0.0,0.0
5440,-0.023742692545056343,0.009399420581758022,-0.0003662111994344741,0.9996955394744873,-0.17187505960464478,-0.4609376788139343,9.707035064697266,0.0,0.0,0.0
5447,-0.023742692545056343,0.009399420581758022,-0.0003662111994344741,0.9996955394744873,-0.17187505960464478,-0.4609376788139343,9.707035064697266,0.0,0.0,0.0
5453,-0.023742692545056343,0.009399420581758022,-0.0003662111994344741,0.9996955394744873,-0.19140632450580597,-0.44921889901161194,9.707035064697266,0.0,0.0,0.0
5459,-0.023742692545056343,0.009399420581758022,-0.0003662111994344741,0.9996955394744873,-0.19140632450580597,-0.44921889901161194,9.707035064697266,0.0,0.0,0.0
5468,-0.023742692545056343,0.009399420581758022,-0.0003662111994344741,0.9996955394744873,-0.19140632450580597,-0.44921889901161194,9.707035064697266,0.0,0.0,0.0
5480,-0.023742692545056343,0.009399420581758022,-0.0003662111994344741,0.9996955394744873,-0.17187505960464478,-0.4609376788139343,9.707035064697266,0.0,0.0,0.0
5488,-0.023742692545056343,0.009399420581758022,-0.0003662111994344741,0.9996955394744873,-0.17187505960464478,-0.4609376788139343,9.707035064697266,0.0,0.0,0.0
5494,-0.023742692545056343,0.009399420581758022,-0.0003662111994344741,0.9996955394744873,-0.19140632450580597,-0.4687501788139343,9.691410064697266,0.0,0.0,0.0
5500,-0.023742692545056343,0.009399420581758022,-0.0003662111994344741,0.9996955394744873,-0.19140632450580597,-0.4687501788139343,9.691410064697266,0.0,0.0,0.0
5507,-0.023742692545056343,0.009460455738008022,-0.0003662111994344741,0.9996955394744873,-0.19140632450580597,-0.4687501788139343,9.691410064697266,0.0,0.0,0.0
5513,-0.023742692545056343,0.009460455738008022,-0.0003662111994344741,0.9996955394744873,-0.18359380960464478,-0.4609376788139343,9.679691314697266,0.0,0.0,0.0
5519,-0.023742692545056343,0.009460455738008022,-0.0003662111994344741,0.9996955394744873,-0.18359380960464478,-0.4609376788139343,9.679691314697266,0.0,0.0,0.0
5526,-0.023742692545056343,0.009460455738008022,-0.0003662111994344741,0.9996955394744873,-0.18359380960464478,-0.4609376788139343,9.679691314697266,0.0,0.0,0.0
5532,-0.023742692545056343,0.009460455738008022,-0.0003662111994344741,0.9996955394744873,-0.18359380960464478,-0.4687501788139343,9.703128814697266,0.0,0.0,0.0
5538,-0.023742692545056343,0.009460455738008022,-0.0003662111994344741,0.9996955394744873,-0.18359380960464478,-0.4687501788139343,9.703128814697266,0.0,0.0,0.0
5547,-0.023742692545056343,0.009460455738008022,-0.0003662111994344741,0.9996955394744873,-0.18359380960464478,-0.4687501788139343,9.703128814697266,0.0,0.0,0.0
5555,-0.023742692545056343,0.009460455738008022,-0.0003662111994344741,0.9996955394744873,-0.19140632450580597,-0.4609376788139343,9.687503814697266,0.0,0.0,0.0
5561,-0.023742692545056343,0.009460455738008022,-0.0003662111994344741,0.9996955394744873,-0.19140632450580597,-0.4609376788139343,9.687503814697266,0.0,0.0,0.0
5567,-0.023742692545056343,0.009460455738008022,-0.0003662111994344741,0.9996955394744873,-0.19140632450580597,-0.4609376788139343,9.687503814697266,0.0,0.0,0.0
5573,-0.023742692545056343,0.009460455738008022,-0.0003662111994344741,0.9996955394744873,-0.18359380960464478,-0.4609376788139343,9.687503814697266,0.0,0.0,0.0
5579,-0.023742692545056343,0.009460455738008022,-0.0003662111994344741,0.9996955394744873,-0.18359380960464478,-0.4609376788139343,9.687503814697266,0.0,0.0,0.0
5586,-0.023742692545056343,0.009460455738008022,-0.0003662111994344741,0.9996955394744873,-0.18359380960464478,-0.4609376788139343,9.687503814697266,0.0,0.0,0.0
5593,-0.023742692545056343,0.009460455738008022,-0.0003662111994344741,0.9996955394744873,-0.19921882450580597,-0.4687501788139343,9.687503814697266,0.0,0.0,0.0
5599,-0.023742692545056343,0.009460455738008022,-0.0003662111994344741,0.9996955394744873,-0.19921882450580597,-0.4687501788139343,9.687503814697266,0.0,0.0,0.0
5607,-0.023742692545056343,0.009460455738008022,-0.0003662111994344741,0.9996955394744873,-0.19921882450580597,-0.4687501788139343,9.687503814697266,0.0,0.0,0.0
5617,-0.023742692545056343,0.009460455738008022,-0.0003662111994344741,0.9996955394744873,-0.19921882450580597,-0.4687501788139343,9.687503814697266,0.0,0.0,0.0
5625,-0.023742692545056343,0.009460455738008022,-0.0003662111994344741,0.9996955394744873,-0.19921882450580597,-0.4687501788139343,9.687503814697266,0.0,0.0,0.0
5632,-0.023742692545056343,0.009460455738008022,-0.0003662111994344741,0.9996955394744873,-0.17187505960464478,-0.4609376788139343,9.667972564697266,0.0,0.0,0.0
5638,-0.023742692545056343,0.009460455738008022,-0.0003662111994344741,0.9996955394744873,-0.17187505960464478,-0.4609376788139343,9.667972564697266,0.0,0.0,0.0
5645,-0.023742692545056343,0.009460455738008022,-0.0003662111994344741,0.9996955394744873,-0.17187505960464478,-0.4609376788139343,9.667972564697266,0.0,0.0,0.0
5651,-0.023742692545056343,0.009460455738008022,-0.0003662111994344741,0.9996955394744873,-0.16406255960464478,-0.4609376788139343,9.679691314697266,0.0,0.0,0.0
5657,-0.023742692545056343,0.009460455738008022,-0.0003662111994344741,0.9996955394744873,-0.16406255960464478,-0.4609376788139343,9.679691314697266,0.0,0.0,0.0
5663,-0.023742692545056343,0.009460455738008022,-0.0003662111994344741,0.9996955394744873,-0.16406255960464478,-0.4609376788139343,9.679691314697266,0.0,0.0,0.0
5669,-0.023742692545056343,0.009460455738008022,-0.0003662111994344741,0.9996955394744873,-0.17187505960464478,-0.4687501788139343,9.691410064697266,0.0,0.0,0.0
5677,-0.023742692545056343,0.009460455738008022,-0.0003662111994344741,0.9996955394744873,-0.17187505960464478,-0.4687501788139343,9.691410064697266,0.0,0.0,0.0
5686,-0.023742692545056343,0.009460455738008022,-0.0003662111994344741,0.9996955394744873,-0.17187505960464478,-0.4687501788139343,9.691410064697266,0.0,0.0,0.0
5694,-0.023742692545056343,0.009460455738008022,-0.0003662111994344741,0.9996955394744873,-0.19921882450580597,-0.4687501788139343,9.679691314697266,0.0,0.0,0.0
5699,-0.023742692545056343,0.009460455738008022,-0.0003662111994344741,0.9996955394744873,-0.19921882450580597,-0.4687501788139343,9.679691314697266,0.0,0.0,0.0
5706,-0.023742692545056343,0.009460455738008022,-0.0003662111994344741,0.9996955394744873,-0.19921882450580597,-0.4687501788139343,9.679691314697266,0.0,0.0,0.0
5712,-0.023742692545056343,0.009460455738008022,-0.0003662111994344741,0.9996955394744873,-0.18359380960464478,-0.4687501788139343,9.703128814697266,0.0,0.0,0.0
5719,-0.023742692545056343,0.009460455738008022,-0.0003662111994344741,0.9996955394744873,-0.18359380960464478,-0.4687501788139343,9.703128814697266,0.0,0.0,0.0
5725,-0.023742692545056343,0.009521490894258022,-0.0003662111994344741,0.9996955394744873,-0.18359380960464478,-0.4687501788139343,9.703128814697266,0.0,0.0,0.0
5731,-0.023742692545056343,0.009521490894258022,-0.0003662111994344741,0.9996955394744873,-0.18359380960464478,-0.4609376788139343,9.687503814697266,0.0,0.0,0.0
5737,-0.023742692545056343,0.009521490894258022,-0.0003662111994344741,0.9996955394744873,-0.18359380960464478,-0.4609376788139343,9.687503814697266,0.0,0.0,0.0
5745,-0.023742692545056343,0.009521490894258022,-0.0003662111994344741,0.9996955394744873,-0.18359380960464478,-0.4609376788139343,9.687503814697266,0.0,0.0,0.0
5757,-0.023742692545056343,0.009521490894258022,-0.0003662111994344741,0.9996955394744873,-0.18359380960464478,-0.4609376788139343,9.687503814697266,0.0,0.0,0.0
5772,-0.023742692545056343,0.009521490894258022,-0.0003662111994344741,0.9996955394744873,-0.17187505960464478,-0.4609376788139343,9.710941314697266,0.0,0.0,0.0
5778,-0.023742692545056343,0.009521490894258022,-0.0003662111994344741,0.9996955394744873,-0.17187505960464478,-0.4609376788139343,9.710941314697266,0.0,0.0,0.0
5784,-0.023742692545056343,0.009521490894258022,-0.0003662111994344741,0.9996955394744873,-0.17187505960464478,-0.4609376788139343,9.710941314697266,0.0,0.0,0.0
5790,-0.023742692545056343,0.009521490894258022,-0.0003662111994344741,0.9996955394744873,-0.17187505960464478,-0.4687501788139343,9.691410064697266,0.0,0.0,0.0
5796,-0.023742692545056343,0.009521490894258022,-0.0003662111994344741,0.9996955394744873,-0.17187505960464478,-0.4687501788139343,9.691410064697266,0.0,0.0,0.0
5804,-0.023742692545056343,0.009521490894258022,-0.0003662111994344741,0.9996955394744873,-0.17187505960464478,-0.4687501788139343,9.691410064697266,0.0,0.0,0.0
5810,-0.023742692545056343,0.009521490894258022,-0.0003662111994344741,0.9996955394744873,-0.17187505960464478,-0.4609376788139343,9.687503814697266,0.0,0.0,0.0
5816,-0.023742692545056343,0.009521490894258022,-0.0003662111994344741,0.9996955394744873,-0.17187505960464478,-0.4609376788139343,9.687503814697266,0.0,0.0,0.0
5824,-0.023742692545056343,0.009521490894258022,-0.0003662111994344741,0.9996955394744873,-0.17187505960464478,-0.4609376788139343,9.687503814697266,0.0,0.0,0.0
5832,-0.023742692545056343,0.009521490894258022,-0.0003662111994344741,0.9996955394744873,-0.17187505960464478,-0.4609376788139343,9.707035064697266,0.0,0.0,0.0
5838,-0.023742692545056343,0.009521490894258022,-0.0003662111994344741,0.9996955394744873,-0.17187505960464478,-0.4609376788139343,9.707035064697266,0.0,0.0,0.0
5844,-0.023742692545056343,0.009521490894258022,-0.0003662111994344741,0.9996955394744873,-0.17187505960464478,-0.4609376788139343,9.707035064697266,0.0,0.0,0.0
5851,-0.023742692545056343,0.009521490894258022,-0.0003662111994344741,0.9996955394744873,-0.18359380960464478,-0.4609376788139343,9.707035064697266,0.0,0.0,0.0
5857,-0.023742692545056343,0.009521490894258022,-0.0003662111994344741,0.9996955394744873,-0.18359380960464478,-0.4609376788139343,9.707035064697266,0.0,0.0,0.0
5863,-0.023742692545056343,0.009521490894258022,-0.0003662111994344741,0.9996955394744873,-0.18359380960464478,-0.4609376788139343,9.707035064697266,0.0,0.0,0.0
5869,-0.023742692545056343,0.009521490894258022,-0.0003662111994344741,0.9996955394744873,-0.19140632450580597,-0.4609376788139343,9.710941314697266,0.0,0.0,0.0
5875,-0.023742692545056343,0.009521490894258022,-0.0003662111994344741,0.9996955394744873,-0.19140632450580597,-0.4609376788139343,9.710941314697266,0.0,0.0,0.0
5884,-0.023742692545056343,0.009521490894258022,-0.0003662111994344741,0.9996955394744873,-0.19140632450580597,-0.4609376788139343,9.710941314697266,0.0,0.0,0.0
5895,-0.023742692545056343,0.009521490894258022,-0.0003662111994344741,0.9996955394744873,-0.19140632450580597,-0.4609376788139343,9.710941314697266,0.0,0.0,0.0
5903,-0.023742692545056343,0.009460455738008022,-0.0003662111994344741,0.9996955394744873,-0.19140632450580597,-0.4609376788139343,9.710941314697266,0.0,0.0,0.0
5909,-0.023742692545056343,0.009460455738008022,-0.0003662111994344741,0.9996955394744873,-0.18359380960464478,-0.4687501788139343,9.718753814697266,0.0,0.0,0.0
5915,-0.023742692545056343,0.009460455738008022,-0.0003662111994344741,0.9996955394744873,-0.18359380960464478,-0.4687501788139343,9.718753814697266,0.0,0.0,0.0
5921,-0.023742692545056343,0.009460455738008022,-0.0003662111994344741,0.9996955394744873,-0.18359380960464478,-0.4687501788139343,9.718753814697266,0.0,0.0,0.0
5927,-0.023742692545056343,0.009460455738008022,-0.0003662111994344741,0.9996955394744873,-0.18359380960464478,-0.44921889901161194,9.679691314697266,0.0,0.0,0.0
5934,-0.023742692545056343,0.009460455738008022,-0.0003662111994344741,0.9996955394744873,-0.18359380960464478,-0.44921889901161194,9.679691314697266,0.0,0.0,0.0
5941,-0.023742692545056343,0.009460455738008022,-0.0003662111994344741,0.9996955394744873,-0.18359380960464478,-0.44921889901161194,9.679691314697266,0.0,0.0,0.0
5946,-0.023742692545056343,0.009460455738008022,-0.0003662111994344741,0.9996955394744873,-0.19140632450580597,-0.44921889901161194,9.679691314697266,0.0,0.0,0.0
5953,-0.023742692545056343,0.009460455738008022,-0.0003662111994344741,0.9996955394744873,-0.19140632450580597,-0.44921889901161194,9.679691314697266,0.0,0.0,0.0
5961,-0.023742692545056343,0.009460455738008022,-0.0003662111994344741,0.9996955394744873,-0.19140632450580597,-0.44921889901161194,9.679691314697266,0.0,0.0,0.0
5970,-0.023742692545056343,0.009460455738008022,-0.0003662111994344741,0.9996955394744873,-0.17187505960464478,-0.4687501788139343,9.664066314697266,0.0,0.0,0.0
5977,-0.023742692545056343,0.009460455738008022,-0.0003662111994344741,0.9996955394744873,-0.17187505960464478,-0.4687501788139343,9.664066314697266,0.0,0.0,0.0
5983,-0.023742692545056343,0.009460455738008022,-0.0003662111994344741,0.9996955394744873,-0.17187505960464478,-0.4687501788139343,9.664066314697266,0.0,0.0,0.0
5989,-0.023742692545056343,0.009460455738008022,-0.0003662111994344741,0.9996955394744873,-0.19921882450580597,-0.4609376788139343,9.738285064697266,0.0,0.0,0.0
5995,-0.023742692545056343,0.009460455738008022,-0.0003662111994344741,0.9996955394744873,-0.19921882450580597,-0.4609376788139343,9.738285064697266,0.0,0.0,0.0
6002,-0.023742692545056343,0.009460455738008022,-0.0003662111994344741,0.9996955394744873,-0.19921882450580597,-0.4609376788139343,9.738285064697266,0.0,0.0,0.0
6008,-0.023742692545056343,0.009460455738008022,-0.0003662111994344741,0.9996955394744873,-0.17187505960464478,-0.44921889901161194,9.675785064697266,0.0,0.0,0.0
6014,-0.023742692545056343,0.009460455738008022,-0.0003662111994344741,0.9996955394744873,-0.17187505960464478,-0.44921889901161194,9.675785064697266,0.0,0.0,0.0
6023,-0.023742692545056343,0.009460455738008022,-0.0003662111994344741,0.9996955394744873,-0.17187505960464478,-0.44921889901161194,9.675785064697266,0.0,0.0,0.0
6033,-0.023742692545056343,0.009460455738008022,-0.0003662111994344741,0.9996955394744873,-0.17187505960464478,-0.44921889901161194,9.675785064697266,0.0,0.0,0.0
6041,-0.023742692545056343,0.009460455738008022,-0.0003662111994344741,0.9996955394744873,-0.17187505960464478,-0.44921889901161194,9.675785064697266,0.0,0.0,0.0
6047,-0.023742692545056343,0.009460455738008022,-0.0003662111994344741,0.9996955394744873,-0.19140632450580597,-0.4687501788139343,9.671878814697266,0.0,0.0,0.0
6053,-0.023742692545056343,0.009460455738008022,-0.0003662111994344741,0.9996955394744873,-0.19140632450580597,-0.4687501788139343,9.671878814697266,0.0,0.0,0.0
6061,-0.023742692545056343,0.009460455738008022,-0.0003662111994344741,0.9996955394744873,-0.19140632450580597,-0.4687501788139343,9.671878814697266,0.0,0.0,0.0
6067,-0.023742692545056343,0.009460455738008022,-0.0003662111994344741,0.9996955394744873,-0.19140632450580597,-0.4609376788139343,9.707035064697266,0.0,0.0,0.0
6073,-0.023742692545056343,0.009460455738008022,-0.0003662111994344741,0.9996955394744873,-0.19140632450580597,-0.4609376788139343,9.707035064697266,0.0,0.0,0.0
6080,-0.023742692545056343,0.009460455738008022,-0.0003662111994344741,0.9996955394744873,-0.19140632450580597,-0.4609376788139343,9.707035064697266,0.0,0.0,0.0
6086,-0.023742692545056343,0.009460455738008022,-0.0003662111994344741,0.9996955394744873,-0.19921882450580597,-0.4609376788139343,9.683597564697266,0.0,0.0,0.0
6092,-0.023742692545056343,0.009460455738008022,-0.0003662111994344741,0.9996955394744873,-0.19921882450580597,-0.4609376788139343,9.683597564697266,0.0,0.0,0.0
6102,-0.023742692545056343,0.009460455738008022,-0.0003662111994344741,0.9996955394744873,-0.19921882450580597,-0.4609376788139343,9.683597564697266,0.0,0.0,0.0
6112,-0.023742692545056343,0.009460455738008022,-0.0003662111994344741,0.9996955394744873,-0.19921882450580597,-0.4609376788139343,9.714847564697266,0.0,0.0,0.0
6120,-0.023742692545056343,0.009460455738008022,-0.0003662111994344741,0.9996955394744873,-0.19921882450580597,-0.4609376788139343,9.714847564697266,0.0,0.0,0.0
6126,-0.023742692545056343,0.009460455738008022,-0.0003662111994344741,0.9996955394744873,-0.18359380960464478,-0.4609376788139343,9.679691314697266,0.0,0.0,0.0
6132,-0.023742692545056343,0.009460455738008022,-0.0003662111994344741,0.9996955394744873,-0.18359380960464478,-0.4609376788139343,9.679691314697266,0.0,0.0,0.0
6141,-0.023742692545056343,0.009399420581758022,-0.0003662111994344741,0.9996955394744873,-0.18359380960464478,-0.4609376788139343,9.679691314697266,0.0,0.0,0.0
6149,-0.023742692545056343,0.009399420581758022,-0.0003662111994344741,0.9996955394744873,-0.18359380960464478,-0.4609376788139343,9.707035064697266,0.0,0.0,0.0
6155,-0.023742692545056343,0.009399420581758022,-0.0003662111994344741,0.9996955394744873,-0.18359380960464478,-0.4609376788139343,9.707035064697266,0.0,0.0,0.0
6163,-0.023742692545056343,0.009399420581758022,-0.0003662111994344741,0.9996955394744873,-0.18359380960464478,-0.4609376788139343,9.707035064697266,0.0,0.0,0.0
6172,-0.023742692545056343,0.009399420581758022,-0.0003662111994344741,0.9996955394744873,-0.18359380960464478,-0.4609376788139343,9.707035064697266,0.0,0.0,0.0
6180,-0.023742692545056343,0.009399420581758022,-0.0003662111994344741,0.9996955394744873,-0.18359380960464478,-0.4609376788139343,9.707035064697266,0.0,0.0,0.0
6187,-0.023742692545056343,0.009399420581758022,-0.0003662111994344741,0.9996955394744873,-0.30468761920928955,-0.4882814288139343,9.945316314697266,0.0,0.0,0.0
6193,-0.023742692545056343,0.009399420581758022,-0.0003662111994344741,0.9996955394744873,-0.30468761920928955,-0.4882814288139343,9.945316314697266,0.0,0.0,0.0
6202,-0.023742692545056343,0.009399420581758022,-0.0003662111994344741,0.9996955394744873,-0.30468761920928955,-0.4882814288139343,9.945316314697266,0.0,0.0,0.0
6211,-0.023742692545056343,0.009399420581758022,-0.0003662111994344741,0.9996955394744873,-0.14453129470348358,-0.42187514901161194,9.335941314697266,0.0,0.0,0.0
6219,-0.023742692545056343,0.009399420581758022,-0.0003662111994344741,0.9996955394744873,-0.14453129470348358,-0.42187514901161194,9.335941314697266,-0.03320314735174179,-0.06054691970348358,-0.001953126396983862
6225,-0.023742692545056343,0.009399420581758022,-0.0003662111994344741,0.9996955394744873,-0.13281254470348358,-0.5468751788139343,9.945316314697266,-0.03320314735174179,-0.06054691970348358,-0.001953126396983862
6232,-0.023742692545056343,0.009399420581758022,-0.0003662111994344741,0.9996955394744873,-0.13281254470348358,-0.5468751788139343,9.945316314697266,-0.007812505587935448,-0.023437516763806343,-0.001953126396983862
6240,-0.024169938638806343,0.008544928394258022,-0.00030517601408064365,0.9996955394744873,-0.13281254470348358,-0.5468751788139343,9.945316314697266,-0.007812505587935448,-0.023437516763806343,-0.001953126396983862
6251,-0.024169938638806343,0.008544928394258022,-0.00030517601408064365,0.9996955394744873,-0.14453129470348358,-0.5156251788139343,9.824222564697266,-0.007812505587935448,-0.023437516763806343,-0.001953126396983862
6259,-0.024169938638806343,0.008544928394258022,-0.00030517601408064365,0.9996955394744873,-0.14453129470348358,-0.5156251788139343,9.824222564697266,0.02929689548909664,0.07226567715406418,0.001953126396983862
6265,-0.024169938638806343,0.008544928394258022,-0.00030517601408064365,0.9996955394744873,-0.21875007450580597,-0.41015639901161194,9.597660064697266,0.02929689548909664,0.07226567715406418,0.001953126396983862
6272,-0.024169938638806343,0.008544928394258022,-0.00030517601408064365,0.9996955394744873,-0.21875007450580597,-0.41015639901161194,9.597660064697266,0.052734412252902985,0.12304696440696716,0.001953126396983862
6278,-0.023620622232556343,0.009826667606830597,-0.0003662111994344741,0.9996955394744873,-0.21875007450580597,-0.41015639901161194,9.597660064697266,0.052734412252902985,0.12304696440696716,0.001953126396983862
6284,-0.023620622232556343,0.009826667606830597,-0.0003662111994344741,0.9996955394744873,-0.35546886920928955,-0.42187514901161194,9.769535064697266,0.052734412252902985,0.12304696440696716,0.001953126396983862
6290,-0.023620622232556343,0.009826667606830597,-0.0003662111994344741,0.9996955394744873,-0.35546886920928955,-0.42187514901161194,9.769535064697266,0.02929689548909664,0.048828158527612686,0.001953126396983862
6297,-0.023193376138806343,0.010742194950580597,-0.0003662111994344741,0.9996955394744873,-0.35546886920928955,-0.42187514901161194,9.769535064697266,0.02929689548909664,0.048828158527612686,0.001953126396983862
6303,-0.023193376138806343,0.010742194950580597,-0.0003662111994344741,0.9996955394744873,-0.28906258940696716,-0.34375011920928955,9.468753814697266,0.02929689548909664,0.048828158527612686,0.001953126396983862
6310,-0.023193376138806343,0.010742194950580597,-0.0003662111994344741,0.9996955394744873,-0.28906258940696716,-0.34375011920928955,9.468753814697266,-0.019531264901161194,-0.04101565480232239,0.0
6319,-0.023193376138806343,0.010742194950580597,-0.0003662111994344741,0.9996955394744873,-0.28906258940696716,-0.34375011920928955,9.468753814697266,-0.019531264901161194,-0.04101565480232239,0.0
6325,-0.023193376138806343,0.010742194950580597,-0.0003662111994344741,0.9996955394744873,0.11328128725290298,-0.7187502384185791,9.417972564697266,-0.019531264901161194,-0.04101565480232239,0.0
6331,-0.023193376138806343,0.010742194950580597,-0.0003662111994344741,0.9996955394744873,0.11328128725290298,-0.7187502384185791,9.417972564697266,-0.03125002235174179,-0.02929689548909664,0.015625011175870895
6341,-0.023376481607556343,0.010375984013080597,-0.00030517601408064365,0.9996955394744873,0.11328128725290298,-0.7187502384185791,9.417972564697266,-0.03125002235174179,-0.02929689548909664,0.015625011175870895
6347,-0.023376481607556343,0.010375984013080597,-0.00030517601408064365,0.9996955394744873,-0.17187505960464478,-1.8671882152557373,10.011722564697266,-0.03125002235174179,-0.02929689548909664,0.015625011175870895
6353,-0.023376481607556343,0.010375984013080597,-0.00030517601408064365,0.9996955394744873,-0.17187505960464478,-1.8671882152557373,10.011722564697266,0.001953126396983862,0.005859379190951586,0.11328133195638657
6362,-0.023620622232556343,0.010192878544330597,0.00042724638478830457,0.9996955394744873,-0.17187505960464478,-1.8671882152557373,10.011722564697266,0.001953126396983862,0.005859379190951586,0.11328133195638657
6369,-0.023620622232556343,0.010192878544330597,0.00042724638478830457,0.9996955394744873,-0.17187505960464478,-1.8671882152557373,10.011722564697266,0.06054691970348358,0.09960944950580597,0.13867197930812836
6377,-0.023193376138806343,0.010803230106830597,0.0016479503829032183,0.9996955394744873,-0.17187505960464478,-1.8671882152557373,10.011722564697266,0.06054691970348358,0.09960944950580597,0.13867197930812836
6387,-0.023193376138806343,0.010803230106830597,0.0016479503829032183,0.9996955394744873,-0.30468761920928955,-0.7187502384185791,9.886722564697266,0.06054691970348358,0.09960944950580597,0.13867197930812836
6395,-0.023193376138806343,0.010803230106830597,0.0016479503829032183,0.9996955394744873,-0.30468761920928955,-0.7187502384185791,9.886722564697266,0.02929689548909664,0.07226567715406418,0.19140638411045074
6403,-0.023193376138806343,0.010803230106830597,0.0016479503829032183,0.9996955394744873,-0.41015639901161194,-0.5937502384185791,9.593753814697266,0.02929689548909664,0.07226567715406418,0.19140638411045074
6409,-0.023193376138806343,0.010803230106830597,0.0016479503829032183,0.9996955394744873,-0.41015639901161194,-0.5937502384185791,9.593753814697266,-0.005859379190951586,-0.023437516763806343,0.20312514901161194
6416,-0.022644059732556343,0.012084969319403172,0.0053100623190402985,0.9996345043182373,-0.41015639901161194,-0.5937502384185791,9.593753814697266,-0.005859379190951586,-0.023437516763806343,0.20312514901161194
6422,-0.022644059732556343,0.012084969319403172,0.0053100623190402985,0.9996345043182373,-0.33593761920928955,-0.44921889901161194,9.816410064697266,-0.005859379190951586,-0.023437516763806343,0.20312514901161194
6429,-0.022644059732556343,0.012084969319403172,0.0053100623190402985,0.9996345043182373,-0.33593761920928955,-0.44921889901161194,9.816410064697266,-0.021484389901161194,-0.07031255215406418,0.18164075911045074
6436,-0.022827165201306343,0.011596688069403172,0.00726318871602416,0.9996345043182373,-0.33593761920928955,-0.44921889901161194,9.816410064697266,-0.021484389901161194,-0.07031255215406418,0.18164075911045074
6443,-0.022827165201306343,0.011596688069403172,0.00726318871602416,0.9996345043182373,-0.25781258940696716,-0.5664064288139343,9.750003814697266,-0.021484389901161194,-0.07031255215406418,0.18164075911045074
6449,-0.022827165201306343,0.011596688069403172,0.00726318871602416,0.9996345043182373,-0.25781258940696716,-0.5664064288139343,9.750003814697266,-0.03906252980232239,-0.08007818460464478,0.16210949420928955
6458,-0.023132340982556343,0.010864265263080597,0.008972174488008022,0.9996345043182373,-0.25781258940696716,-0.5664064288139343,9.750003814697266,-0.03906252980232239,-0.08007818460464478,0.16210949420928955
6464,-0.023132340982556343,0.010864265263080597,0.008972174488008022,0.9996345043182373,-0.33593761920928955,-0.9296878576278687,9.710941314697266,-0.03906252980232239,-0.08007818460464478,0.16210949420928955
6470,-0.023132340982556343,0.010864265263080597,0.008972174488008022,0.9996345043182373,-0.33593761920928955,-0.9296878576278687,9.710941314697266,-0.054687537252902985,-0.10937507450580597,0.15820324420928955
6477,-0.023559587076306343,0.010009773075580597,0.010559089481830597,0.9996345043182373,-0.33593761920928955,-0.9296878576278687,9.710941314697266,-0.054687537252902985,-0.10937507450580597,0.15820324420928955
6483,-0.023559587076306343,0.010009773075580597,0.010559089481830597,0.9996345043182373,-0.21875007450580597,-0.9687503576278687,9.792972564697266,-0.054687537252902985,-0.10937507450580597,0.15820324420928955
6490,-0.023559587076306343,0.010009773075580597,0.010559089481830597,0.9996345043182373,-0.21875007450580597,-0.9687503576278687,9.792972564697266,-0.07812505960464478,-0.16210949420928955,0.14843760430812836
6496,-0.024230973795056343,0.008605963550508022,0.012146004475653172,0.9995734691619873,-0.21875007450580597,-0.9687503576278687,9.792972564697266,-0.07812505960464478,-0.16210949420928955,0.14843760430812836
6502,-0.024230973795056343,0.008605963550508022,0.012146004475653172,0.9995734691619873,0.0,-0.8710940480232239,9.750003814697266,-0.07812505960464478,-0.16210949420928955,0.14843760430812836
6508,-0.024230973795056343,0.008605963550508022,0.012146004475653172,0.9995734691619873,0.0,-0.8710940480232239,9.750003814697266,-0.08984381705522537,-0.07812505960464478,0.16210949420928955
6517,-0.025085467845201492,0.00732422387227416,0.01373292040079832,0.9995734691619873,0.0,-0.8710940480232239,9.750003814697266,-0.08984381705522537,-0.07812505960464478,0.16210949420928955
6526,-0.025085467845201492,0.00732422387227416,0.01373292040079832,0.9995734691619873,-0.06640627235174179,-0.8710940480232239,10.226566314697266,-0.08984381705522537,-0.07812505960464478,0.16210949420928955
6535,-0.025085467845201492,0.00732422387227416,0.01373292040079832,0.9995734691619873,-0.06640627235174179,-0.8710940480232239,10.226566314697266,-0.10156257450580597,0.08593755960464478,0.16015636920928955
6541,-0.025085467845201492,0.00732422387227416,0.01373292040079832,0.9995734691619873,-0.11328128725290298,-1.0429691076278687,10.046878814697266,-0.10156257450580597,0.08593755960464478,0.16015636920928955
6547,-0.025085467845201492,0.00732422387227416,0.01373292040079832,0.9995734691619873,-0.11328128725290298,-1.0429691076278687,10.046878814697266,-0.08984381705522537,0.2792970836162567,0.15039072930812836
6554,-0.027160663157701492,0.009216315113008022,0.016906749457120895,0.9994513988494873,-0.11328128725290298,-1.0429691076278687,10.046878814697266,-0.08984381705522537,0.2792970836162567,0.15039072930812836
6560,-0.027160663157701492,0.009216315113008022,0.016906749457120895,0.9994513988494873,-0.09765628725290298,-0.7265627384185791,9.796878814697266,-0.08984381705522537,0.2792970836162567,0.15039072930812836
6567,-0.027160663157701492,0.009216315113008022,0.016906749457120895,0.9994513988494873,-0.09765628725290298,-0.7265627384185791,9.796878814697266,-0.06054691970348358,0.5136722326278687,0.12890633940696716
6574,-0.02801515720784664,0.013244638219475746,0.018249524757266045,0.9993293285369873,-0.09765628725290298,-0.7265627384185791,9.796878814697266,-0.06054691970348358,0.5136722326278687,0.12890633940696716
6580,-0.02801515720784664,0.013244638219475746,0.018249524757266045,0.9993293285369873,-0.17187505960464478,-0.5156251788139343,9.718753814697266,-0.06054691970348358,0.5136722326278687,0.12890633940696716
6588,-0.02801515720784664,0.013244638219475746,0.018249524757266045,0.9993293285369873,-0.17187505960464478,-0.5156251788139343,9.718753814697266,-0.046875033527612686,0.714844286441803,0.11718758195638657
6596,-0.02868654392659664,0.019470227882266045,0.019287122413516045,0.9992072582244873,-0.17187505960464478,-0.5156251788139343,9.718753814697266,-0.046875033527612686,0.714844286441803,0.11718758195638657
6603,-0.02868654392659664,0.019470227882266045,0.019287122413516045,0.9992072582244873,-0.42968764901161194,-0.5156251788139343,9.843753814697266,-0.046875033527612686,0.714844286441803,0.11718758195638657
6609,-0.02868654392659664,0.019470227882266045,0.019287122413516045,0.9992072582244873,-0.42968764901161194,-0.5156251788139343,9.843753814697266,-0.044921908527612686,0.8750005960464478,0.11523445695638657
6616,-0.02935793064534664,0.027343768626451492,0.020202651619911194,0.9989631175994873,-0.42968764901161194,-0.5156251788139343,9.843753814697266,-0.044921908527612686,0.8750005960464478,0.11523445695638657
6622,-0.02935793064534664,0.027343768626451492,0.020202651619911194,0.9989631175994873,-0.5156251788139343,-0.42187514901161194,9.921878814697266,-0.044921908527612686,0.8750005960464478,0.11523445695638657
6628,-0.02935793064534664,0.027343768626451492,0.020202651619911194,0.9989631175994873,-0.5156251788139343,-0.42187514901161194,9.921878814697266,-0.044921908527612686,1.0605475902557373,0.11328133195638657
6635,-0.02996828407049179,0.03704836592078209,0.021057143807411194,0.9986579418182373,-0.5156251788139343,-0.42187514901161194,9.921878814697266,-0.044921908527612686,1.0605475902557373,0.11328133195638657
6641,-0.02996828407049179,0.03704836592078209,0.021057143807411194,0.9986579418182373,-0.7773440480232239,-0.5546876788139343,10.050785064697266,-0.044921908527612686,1.0605475902557373,0.11328133195638657
6647,-0.02996828407049179,0.03704836592078209,0.021057143807411194,0.9986579418182373,-0.7773440480232239,-0.5546876788139343,10.050785064697266,-0.07812505960464478,1.2675790786743164,0.09765631705522537
6656,-0.03088381141424179,0.048828158527612686,0.021850600838661194,0.9981086254119873,-0.7773440480232239,-0.5546876788139343,10.050785064697266,-0.07812505960464478,1.2675790786743164,0.09765631705522537
6667,-0.03088381141424179,0.048828158527612686,0.021850600838661194,0.9981086254119873,-1.2929692268371582,-0.36328136920928955,10.035160064697266,-0.07812505960464478,1.2675790786743164,0.09765631705522537
6676,-0.03088381141424179,0.048828158527612686,0.021850600838661194,0.9981086254119873,-1.2929692268371582,-0.36328136920928955,10.035160064697266,-0.11328133195638657,1.427735447883606,0.06445316970348358
6682,-0.03088381141424179,0.048828158527612686,0.021850600838661194,0.9981086254119873,-2.4335947036743164,-0.21875007450580597,11.714847564697266,-0.11328133195638657,1.427735447883606,0.06445316970348358
6688,-0.03088381141424179,0.048828158527612686,0.021850600838661194,0.9981086254119873,-2.4335947036743164,-0.21875007450580597,11.714847564697266,-0.22070328891277313,1.0937508344650269,0.017578138038516045
6694,-0.03405764326453209,0.07562261074781418,0.022338883951306343,0.9962775707244873,-2.4335947036743164,-0.21875007450580597,11.714847564697266,-0.22070328891277313,1.0937508344650269,0.017578138038516045
6701,-0.03405764326453209,0.07562261074781418,0.022338883951306343,0.9962775707244873,-1.5898443460464478,0.6523439884185791,7.226564884185791,-0.22070328891277313,1.0937508344650269,0.017578138038516045
6707,-0.03405764326453209,0.07562261074781418,0.022338883951306343,0.9962775707244873,-1.5898443460464478,0.6523439884185791,7.226564884185791,-0.5371097326278687,0.5175784826278687,-0.005859379190951586
6714,-0.03796389326453209,0.08306890726089478,0.022338883951306343,0.9955451488494873,-1.5898443460464478,0.6523439884185791,7.226564884185791,-0.5371097326278687,0.5175784826278687,-0.005859379190951586
6720,-0.03796389326453209,0.08306890726089478,0.022338883951306343,0.9955451488494873,-1.7812505960464478,-0.39453139901161194,10.515628814697266,-0.5371097326278687,0.5175784826278687,-0.005859379190951586
6726,-0.03796389326453209,0.08306890726089478,0.022338883951306343,0.9955451488494873,-1.7812505960464478,-0.39453139901161194,10.515628814697266,-0.5566410422325134,0.4023440480232239,0.03125002235174179
6734,-0.04394534230232239,0.08740240335464478,0.022827165201306343,0.9949347972869873,-1.7812505960464478,-0.39453139901161194,10.515628814697266,-0.5566410422325134,0.4023440480232239,0.03125002235174179
6743,-0.04394534230232239,0.08740240335464478,0.022827165201306343,0.9949347972869873,-1.7343755960464478,-0.9179691076278687,8.82422161102295,-0.5566410422325134,0.4023440480232239,0.03125002235174179
6749,-0.04394534230232239,0.08740240335464478,0.022827165201306343,0.9949347972869873,-1.7343755960464478,-0.9179691076278687,8.82422161102295,-0.3632815182209015,0.5039066076278687,0.046875033527612686
6755,-0.048522982746362686,0.09179694205522537,0.023437516763806343,0.9943244457244873,-1.7343755960464478,-0.9179691076278687,8.82422161102295,-0.3632815182209015,0.5039066076278687,0.046875033527612686
6761,-0.048522982746362686,0.09179694205522537,0.023437516763806343,0.9943244457244873,-1.8945319652557373,-0.4882814288139343,8.87109661102295,-0.3632815182209015,0.5039066076278687,0.046875033527612686
6768,-0.048522982746362686,0.09179694205522537,0.023437516763806343,0.9943244457244873,-1.8945319652557373,-0.4882814288139343,8.87109661102295,-0.4003909230232239,0.44531282782554626,0.04296877980232239
6774,-0.052368201315402985,0.09661871939897537,0.023986833170056343,0.9936530590057373,-1.8945319652557373,-0.4882814288139343,8.87109661102295,-0.4003909230232239,0.44531282782554626,0.04296877980232239
6780,-0.052368201315402985,0.09661871939897537,0.023986833170056343,0.9936530590057373,-1.8867194652557373,-0.8046877980232239,9.441410064697266,-0.4003909230232239,0.44531282782554626,0.04296877980232239
6787,-0.052368201315402985,0.09661871939897537,0.023986833170056343,0.9936530590057373,-1.8867194652557373,-0.8046877980232239,9.441410064697266,-0.3847658932209015,0.3281252384185791,0.054687537252902985
6795,-0.05645756050944328,0.10034187138080597,0.024597184732556343,0.9930427074432373,-1.8867194652557373,-0.8046877980232239,9.441410064697266,-0.3847658932209015,0.3281252384185791,0.054687537252902985
6805,-0.05645756050944328,0.10034187138080597,0.024597184732556343,0.9930427074432373,-1.8867194652557373,-0.8046877980232239,9.441410064697266,-0.2890627086162567,0.3281252384185791,0.07031255215406418
6813,-0.05993656814098358,0.10351569950580597,0.025390643626451492,0.9924933910369873,-1.8867194652557373,-0.8046877980232239,9.441410064697266,-0.2890627086162567,0.3281252384185791,0.07031255215406418
6819,-0.05993656814098358,0.10351569950580597,0.025390643626451492,0.9924933910369873,-2.1054694652557373,-0.9570316076278687,9.12109661102295,-0.2890627086162567,0.3281252384185791,0.07031255215406418
6825,-0.05993656814098358,0.10351569950580597,0.025390643626451492,0.9924933910369873,-2.1054694652557373,-0.9570316076278687,9.12109661102295,-0.23828141391277313,0.3007814586162567,0.06835942715406418
6833,-0.06256107985973358,0.10668952763080597,0.026184100657701492,0.9920051097869873,-2.1054694652557373,-0.9570316076278687,9.12109661102295,-0.23828141391277313,0.3007814586162567,0.06835942715406418
6839,-0.06256107985973358,0.10668952763080597,0.026184100657701492,0.9920051097869873,-2.1757819652557373,-0.9375003576278687,9.14453411102295,-0.23828141391277313,0.3007814586162567,0.06835942715406418
6845,-0.06256107985973358,0.10668952763080597,0.026184100657701492,0.9920051097869873,-2.1757819652557373,-0.9375003576278687,9.14453411102295,-0.24218767881393433,0.18554700911045074,0.06250004470348358
6851,-0.06500248610973358,0.10906989872455597,0.026916522532701492,0.9915168285369873,-2.1757819652557373,-0.9375003576278687,9.14453411102295,-0.24218767881393433,0.18554700911045074,0.06250004470348358
6857,-0.06500248610973358,0.10906989872455597,0.026916522532701492,0.9915168285369873,-2.1445319652557373,-1.3320317268371582,9.394535064697266,-0.24218767881393433,0.18554700911045074,0.06250004470348358
6864,-0.06500248610973358,0.10906989872455597,0.026916522532701492,0.9915168285369873,-2.1445319652557373,-1.3320317268371582,9.394535064697266,-0.2558595538139343,0.14062510430812836,0.06835942715406418
6874,-0.06750492751598358,0.11059578508138657,0.02770998142659664,0.9912116527557373,-2.1445319652557373,-1.3320317268371582,9.394535064697266,-0.2558595538139343,0.14062510430812836,0.06835942715406418
6881,-0.06750492751598358,0.11059578508138657,0.02770998142659664,0.9912116527557373,-2.1171882152557373,-1.3320317268371582,9.378910064697266,-0.2558595538139343,0.14062510430812836,0.06835942715406418
6887,-0.06750492751598358,0.11059578508138657,0.02770998142659664,0.9912116527557373,-2.1171882152557373,-1.3320317268371582,9.378910064697266,-0.17773450911045074,0.17578136920928955,0.07617192715406418
6894,-0.06970220059156418,0.11212166398763657,0.02856447361409664,0.9908454418182373,-2.1171882152557373,-1.3320317268371582,9.378910064697266,-0.17773450911045074,0.17578136920928955,0.07617192715406418
6900,-0.06970220059156418,0.11212166398763657,0.02856447361409664,0.9908454418182373,-2.2031257152557373,-1.2929692268371582,8.71875286102295,-0.17773450911045074,0.17578136920928955,0.07617192715406418
6906,-0.06970220059156418,0.11212166398763657,0.02856447361409664,0.9908454418182373,-2.2031257152557373,-1.2929692268371582,8.71875286102295,-0.11523445695638657,0.16796886920928955,0.08203130960464478
6913,-0.07110600918531418,0.11389168351888657,0.02935793064534664,0.9905402660369873,-2.2031257152557373,-1.2929692268371582,8.71875286102295,-0.11523445695638657,0.16796886920928955,0.08203130960464478
6919,-0.07110600918531418,0.11389168351888657,0.02935793064534664,0.9905402660369873,-2.2773444652557373,-1.1289066076278687,8.90625286102295,-0.11523445695638657,0.16796886920928955,0.08203130960464478
6925,-0.07110600918531418,0.11389168351888657,0.02935793064534664,0.9905402660369873,-2.2773444652557373,-1.1289066076278687,8.90625286102295,-0.13476571440696716,0.048828158527612686,0.09765631705522537
6944,-0.07110600918531418,0.11389168351888657,0.02935793064534664,0.9905402660369873,-2.2773444652557373,-1.1289066076278687,8.90625286102295,-0.09375006705522537,0.009765632450580597,0.11523445695638657
6952,-0.07348638027906418,0.11523445695638657,0.03155519813299179,0.9901130199432373,-2.2773444652557373,-1.1289066076278687,8.90625286102295,-0.09375006705522537,0.009765632450580597,0.11523445695638657
6959,-0.07348638027906418,0.11523445695638657,0.03155519813299179,0.9901130199432373,-2.1914069652557373,-1.3320317268371582,9.468753814697266,-0.09375006705522537,0.009765632450580597,0.11523445695638657
6965,-0.07348638027906418,0.11523445695638657,0.03155519813299179,0.9901130199432373,-2.1914069652557373,-1.3320317268371582,9.468753814697266,-0.03515627607703209,0.03320314735174179,0.14062510430812836
6974,-0.07397466152906418,0.11553963273763657,0.03283693641424179,0.9899909496307373,-2.1914069652557373,-1.3320317268371582,9.468753814697266,-0.03515627607703209,0.03320314735174179,0.14062510430812836
6980,-0.07397466152906418,0.11553963273763657,0.03283693641424179,0.9899909496307373,-2.2617194652557373,-1.3007817268371582,9.15625286102295,-0.03515627607703209,0.03320314735174179,0.14062510430812836
6986,-0.07397466152906418,0.11553963273763657,0.03283693641424179,0.9899909496307373,-2.2617194652557373,-1.3007817268371582,9.15625286102295,-0.03710940107703209,-0.009765632450580597,0.15039072930812836
6994,-0.07415776699781418,0.11578377336263657,0.03430178388953209,0.9899299144744873,-2.2617194652557373,-1.3007817268371582,9.15625286102295,-0.03710940107703209,-0.009765632450580597,0.15039072930812836
7003,-0.07415776699781418,0.11578377336263657,0.03430178388953209,0.9899299144744873,-2.2617194652557373,-1.3007817268371582,9.15625286102295,-0.06250004470348358,-0.050781287252902985,0.15820324420928955
7011,-0.07458501309156418,0.11553963273763657,0.03594973310828209,0.9898688793182373,-2.2617194652557373,-1.3007817268371582,9.15625286102295,-0.06250004470348358,-0.050781287252902985,0.15820324420928955
7020,-0.07458501309156418,0.11553963273763657,0.03594973310828209,0.9898688793182373,-2.2695319652557373,-1.4453129768371582,9.457035064697266,-0.06250004470348358,-0.050781287252902985,0.15820324420928955
7026,-0.07458501309156418,0.11553963273763657,0.03594973310828209,0.9898688793182373,-2.2695319652557373,-1.4453129768371582,9.457035064697266,-0.021484389901161194,-0.048828158527612686,0.15625011920928955
7032,-0.07482915371656418,0.11511238664388657,0.03759768232703209,0.9898078441619873,-2.2695319652557373,-1.4453129768371582,9.457035064697266,-0.021484389901161194,-0.048828158527612686,0.15625011920928955
7038,-0.07482915371656418,0.11511238664388657,0.03759768232703209,0.9898078441619873,-2.4023447036743164,-1.4843754768371582,9.17187786102295,-0.021484389901161194,-0.048828158527612686,0.15625011920928955
7045,-0.07482915371656418,0.11511238664388657,0.03759768232703209,0.9898078441619873,-2.4023447036743164,-1.4843754768371582,9.17187786102295,-0.003906252793967724,-0.050781287252902985,0.14453135430812836
7051,-0.07476811856031418,0.11474617570638657,0.03912356495857239,0.9898078441619873,-2.4023447036743164,-1.4843754768371582,9.17187786102295,-0.003906252793967724,-0.050781287252902985,0.14453135430812836
7057,-0.07476811856031418,0.11474617570638657,0.03912356495857239,0.9898078441619873,-2.4023447036743164,-1.4648442268371582,9.29687786102295,-0.003906252793967724,-0.050781287252902985,0.14453135430812836
7063,-0.07476811856031418,0.11474617570638657,0.03912356495857239,0.9898078441619873,-2.4023447036743164,-1.4648442268371582,9.29687786102295,-0.023437516763806343,-0.07617192715406418,0.13281258940696716
7083,-0.07476811856031418,0.11474617570638657,0.03912356495857239,0.9898078441619873,-2.4023447036743164,-1.4648442268371582,9.29687786102295,-0.015625011175870895,-0.08007818460464478,0.12109383940696716
7091,-0.07489018887281418,0.11346443742513657,0.04187014698982239,0.9898078441619873,-2.4023447036743164,-1.4648442268371582,9.29687786102295,-0.015625011175870895,-0.08007818460464478,0.12109383940696716
7097,-0.07489018887281418,0.11346443742513657,0.04187014698982239,0.9898078441619873,-2.3671884536743164,-1.4648442268371582,9.26172161102295,-0.015625011175870895,-0.08007818460464478,0.12109383940696716
7103,-0.07489018887281418,0.11346443742513657,0.04187014698982239,0.9898078441619873,-2.3671884536743164,-1.4648442268371582,9.26172161102295,0.019531264901161194,-0.048828158527612686,0.09960944950580597
7113,-0.07476811856031418,0.11291512101888657,0.04302981495857239,0.9898688793182373,-2.3671884536743164,-1.4648442268371582,9.26172161102295,0.019531264901161194,-0.048828158527612686,0.09960944950580597
7119,-0.07476811856031418,0.11291512101888657,0.04302981495857239,0.9898688793182373,-2.4414072036743164,-1.4843754768371582,9.22656536102295,0.019531264901161194,-0.048828158527612686,0.09960944950580597
7126,-0.07476811856031418,0.11291512101888657,0.04302981495857239,0.9898688793182373,-2.4414072036743164,-1.4843754768371582,9.22656536102295,0.015625011175870895,-0.07031255215406418,0.08007818460464478
7134,-0.07446294277906418,0.11242683976888657,0.04388430714607239,0.9898688793182373,-2.4414072036743164,-1.4843754768371582,9.22656536102295,0.015625011175870895,-0.07031255215406418,0.08007818460464478
7141,-0.07446294277906418,0.11242683976888657,0.04388430714607239,0.9898688793182373,-2.4414072036743164,-1.4843754768371582,9.22656536102295,0.017578138038516045,-0.10937507450580597,0.07226567715406418
7149,-0.07421880215406418,0.11157234758138657,0.044738803058862686,0.9899909496307373,-2.4414072036743164,-1.4843754768371582,9.22656536102295,0.017578138038516045,-0.10937507450580597,0.07226567715406418
7158,-0.07421880215406418,0.11157234758138657,0.044738803058862686,0.9899909496307373,-2.0390632152557373,-1.2734379768371582,9.554691314697266,0.017578138038516045,-0.10937507450580597,0.07226567715406418
7164,-0.07421880215406418,0.11157234758138657,0.044738803058862686,0.9899909496307373,-2.0390632152557373,-1.2734379768371582,9.554691314697266,0.027343768626451492,-0.11523445695638657,0.07812505960464478
7171,-0.07391362637281418,0.11047371476888657,0.045471224933862686,0.9900519847869873,-2.0390632152557373,-1.2734379768371582,9.554691314697266,0.027343768626451492,-0.11523445695638657,0.07812505960464478
7177,-0.07391362637281418,0.11047371476888657,0.045471224933862686,0.9900519847869873,-2.0781257152557373,-1.3007817268371582,9.687503814697266,0.027343768626451492,-0.11523445695638657,0.07812505960464478
7183,-0.07391362637281418,0.11047371476888657,0.045471224933862686,0.9900519847869873,-2.0781257152557373,-1.3007817268371582,9.687503814697266,0.027343768626451492,-0.11523445695638657,0.08789068460464478
7190,-0.07354741543531418,0.10943611711263657,0.046386752277612686,0.9901740550994873,-2.0781257152557373,-1.3007817268371582,9.687503814697266,0.027343768626451492,-0.11523445695638657,0.08789068460464478
7196,-0.07354741543531418,0.10943611711263657,0.046386752277612686,0.9901740550994873,-2.1367194652557373,-1.3203129768371582,9.523441314697266,0.027343768626451492,-0.11523445695638657,0.08789068460464478
7202,-0.07354741543531418,0.10943611711263657,0.046386752277612686,0.9901740550994873,-2.1367194652557373,-1.3203129768371582,9.523441314697266,0.025390643626451492,-0.15039072930812836,0.09765631705522537
7221,-0.07354741543531418,0.10943611711263657,0.046386752277612686,0.9901740550994873,-2.1367194652557373,-1.3203129768371582,9.523441314697266,0.005859379190951586,-0.20703139901161194,0.10351569950580597
7230,-0.07287602871656418,0.10650642216205597,0.048461947590112686,0.9904792308807373,-2.1367194652557373,-1.3203129768371582,9.523441314697266,0.005859379190951586,-0.20703139901161194,0.10351569950580597
7236,-0.07287602871656418,0.10650642216205597,0.048461947590112686,0.9904792308807373,-1.7617193460464478,-0.8242190480232239,9.750003814697266,0.005859379190951586,-0.20703139901161194,0.10351569950580597
7242,-0.07287602871656418,0.10650642216205597,0.048461947590112686,0.9904792308807373,-1.7617193460464478,-0.8242190480232239,9.750003814697266,-0.003906252793967724,-0.2617189288139343,0.12109383940696716
7251,-0.07269292324781418,0.10424812138080597,0.049743689596652985,0.9906623363494873,-1.7617193460464478,-0.8242190480232239,9.750003814697266,-0.003906252793967724,-0.2617189288139343,0.12109383940696716
7258,-0.07269292324781418,0.10424812138080597,0.049743689596652985,0.9906623363494873,-1.8789069652557373,-1.1679692268371582,9.644535064697266,-0.003906252793967724,-0.2617189288139343,0.12109383940696716
7264,-0.07269292324781418,0.10424812138080597,0.049743689596652985,0.9906623363494873,-1.8789069652557373,-1.1679692268371582,9.644535064697266,-0.017578138038516045,-0.3027345836162567,0.13671885430812836
7272,-0.07250981777906418,0.10150153934955597,0.051208533346652985,0.9908454418182373,-1.8789069652557373,-1.1679692268371582,9.644535064697266,-0.017578138038516045,-0.3027345836162567,0.13671885430812836
7279,-0.07250981777906418,0.10150153934955597,0.051208533346652985,0.9908454418182373,-1.8789069652557373,-1.1679692268371582,9.644535064697266,0.003906252793967724,-0.15234385430812836,0.13281258940696716
7287,-0.07244878262281418,0.09899909794330597,0.052795447409152985,0.9910285472869873,-1.8789069652557373,-1.1679692268371582,9.644535064697266,0.003906252793967724,-0.15234385430812836,0.13281258940696716
7298,-0.07244878262281418,0.09899909794330597,0.052795447409152985,0.9910285472869873,-1.3007817268371582,-1.3710942268371582,8.56250286102295,0.003906252793967724,-0.15234385430812836,0.13281258940696716
7304,-0.07244878262281418,0.09899909794330597,0.052795447409152985,0.9910285472869873,-1.3007817268371582,-1.3710942268371582,8.56250286102295,0.20312514901161194,0.4023440480232239,0.12304696440696716
7310,-0.07128911465406418,0.10015876591205597,0.053833045065402985,0.9909675121307373,-1.3007817268371582,-1.3710942268371582,8.56250286102295,0.20312514901161194,0.4023440480232239,0.12304696440696716
7317,-0.07128911465406418,0.10015876591205597,0.053833045065402985,0.9909675121307373,-2.5468759536743164,-1.0429691076278687,9.750003814697266,0.20312514901161194,0.4023440480232239,0.12304696440696716
7322,-0.07128911465406418,0.10015876591205597,0.053833045065402985,0.9909675121307373,-2.5468759536743164,-1.0429691076278687,9.750003814697266,0.21289077401161194,0.7011723518371582,0.12695321440696716
7329,-0.06915288418531418,0.10662849247455597,0.054382361471652985,0.9904181957244873,-2.5468759536743164,-1.0429691076278687,9.750003814697266,0.21289077401161194,0.7011723518371582,0.12695321440696716
7335,-0.06915288418531418,0.10662849247455597,0.054382361471652985,0.9904181957244873,-2.5585947036743164,-0.4960939288139343,10.648441314697266,0.21289077401161194,0.7011723518371582,0.12695321440696716
7342,-0.06915288418531418,0.10662849247455597,0.054382361471652985,0.9904181957244873,-2.5585947036743164,-0.4960939288139343,10.648441314697266,0.019531264901161194,0.06640629470348358,0.08789068460464478
7350,-0.06805425137281418,0.11035164445638657,0.05505375191569328,0.9900519847869873,-2.5585947036743164,-0.4960939288139343,10.648441314697266,0.019531264901161194,0.06640629470348358,0.08789068460464478
7359,-0.06805425137281418,0.11035164445638657,0.05505375191569328,0.9900519847869873,-2.5585947036743164,-0.4960939288139343,10.648441314697266,-0.046875033527612686,0.12500008940696716,0.09375006705522537
7368,-0.06823735684156418,0.11102303117513657,0.05590824410319328,0.9898688793182373,-2.5585947036743164,-0.4960939288139343,10.648441314697266,-0.046875033527612686,0.12500008940696716,0.09375006705522537
7374,-0.06823735684156418,0.11102303117513657,0.05590824410319328,0.9898688793182373,-2.5195322036743164,-0.8437502980232239,9.800785064697266,-0.046875033527612686,0.12500008940696716,0.09375006705522537
