Timestamp,QI,QJ,QK,QR,AX,AY,AZ,GX,GY,GZ
2449,0.0,0.0,0.0,0.0,-0.15234380960464478,-0.15234380960464478,9.648441314697266,0.0,0.0,0.0
2453,0.0,0.0,0.0,0.0,-0.15234380960464478,-0.15234380960464478,9.648441314697266,0.0,0.0,0.0
2458,0.0,0.0,0.0,0.0,-0.11328128725290298,-0.11328128725290298,9.691410064697266,0.0,0.0,0.0
2462,0.0,0.0,0.0,0.0,-0.11328128725290298,-0.15234380960464478,9.691410064697266,0.0,0.0,0.0
2467,0.0,0.0,0.0,0.0,-0.15234380960464478,-0.15234380960464478,9.691410064697266,0.0,0.0,0.0
2472,0.0,0.0,0.0,0.0,-0.15234380960464478,-0.15234380960464478,9.648441314697266,0.0,0.0,0.0
2478,0.0,0.0,0.0,0.0,-0.11328128725290298,-0.15234380960464478,9.648441314697266,0.0,0.0,0.0
2482,0.0,0.0,0.0,0.0,-0.15234380960464478,-0.15234380960464478,9.582035064697266,0.0,0.0,0.0
2487,0.0,0.0,0.0,0.0,-0.15234380960464478,-0.19140632450580597,9.613285064697266,0.0,0.0,0.0
2492,0.0,0.0,0.0,0.0,-0.11328128725290298,-0.15234380960464478,9.609378814697266,0.0,0.0,0.0
2496,0.0,0.0,0.0,0.0,-0.19140632450580597,-0.15234380960464478,9.578128814697266,0.0,0.0,0.0
2501,0.0,0.0,0.0,0.0,-0.15234380960464478,-0.15234380960464478,9.609378814697266,0.0,0.0,0.0
2505,0.0,0.0,0.0,0.0,-0.15234380960464478,-0.11328128725290298,9.609378814697266,0.0,0.0,0.0
2509,0.0,0.0,0.0,0.0,-0.15234380960464478,-0.15234380960464478,9.609378814697266,0.0,0.0,0.0
2514,0.0,0.0,0.0,0.0,-0.15234380960464478,-0.15234380960464478,9.542972564697266,0.0,0.0,0.0
2519,0.0,0.0,0.0,0.0,-0.15234380960464478,-0.15234380960464478,9.582035064697266,0.0,0.0,0.0
2528,0.0,0.0,0.0,0.0,-0.15234380960464478,-0.15234380960464478,9.582035064697266,0.005859379190951586,-0.009765632450580597,-0.003906252793967724
2536,0.0,0.0,0.0,0.0,-0.15234380960464478,-0.15234380960464478,9.582035064697266,-0.003906252793967724,0.005859379190951586,0.0
2541,0.0,0.0,0.0,0.0,-0.15234380960464478,-0.15234380960464478,9.609378814697266,-0.003906252793967724,0.005859379190951586,0.0
2547,0.0,0.0,0.0,0.0,-0.15234380960464478,-0.15234380960464478,9.609378814697266,-0.003906252793967724,0.003906252793967724,0.0
2552,-0.008850104175508022,-0.007507329806685448,0.9965217113494873,0.08264166116714478,-0.15234380960464478,-0.15234380960464478,9.609378814697266,-0.003906252793967724,0.003906252793967724,0.0
2560,-0.008850104175508022,-0.007507329806685448,0.9965217113494873,0.08264166116714478,-0.15234380960464478,-0.15234380960464478,9.648441314697266,-0.003906252793967724,0.003906252793967724,0.0
2566,-0.008850104175508022,-0.007507329806685448,0.9965217113494873,0.08264166116714478,-0.15234380960464478,-0.15234380960464478,9.691410064697266,-0.003906252793967724,0.003906252793967724,0.0
2571,-0.008850104175508022,-0.007507329806685448,0.9965217113494873,0.08264166116714478,-0.15234380960464478,-0.15234380960464478,9.691410064697266,0.0,0.001953126396983862,0.0
2579,-0.008850104175508022,-0.007507329806685448,0.9965217113494873,0.08264166116714478,-0.15234380960464478,-0.15234380960464478,9.691410064697266,0.003906252793967724,0.0,-0.001953126396983862
2585,-0.008850104175508022,-0.007507329806685448,0.9965217113494873,0.08264166116714478,-0.15234380960464478,-0.11328128725290298,9.609378814697266,0.003906252793967724,0.0,-0.001953126396983862
2590,-0.008850104175508022,-0.007507329806685448,0.9965217113494873,0.08264166116714478,-0.15234380960464478,-0.11328128725290298,9.609378814697266,-0.001953126396983862,0.003906252793967724,0.001953126396983862
2596,-0.008850104175508022,-0.007507329806685448,0.9965217113494873,0.08264166116714478,-0.15234380960464478,-0.11328128725290298,9.609378814697266,-0.003906252793967724,0.0,0.001953126396983862
2603,-0.008850104175508022,-0.007507329806685448,0.9965217113494873,0.08264166116714478,-0.15234380960464478,-0.11328128725290298,9.609378814697266,-0.001953126396983862,0.007812505587935448,-0.001953126396983862
2610,-0.008850104175508022,-0.007507329806685448,0.9965217113494873,0.08264166116714478,-0.19140632450580597,-0.15234380960464478,9.652347564697266,-0.001953126396983862,0.007812505587935448,-0.001953126396983862
2616,-0.008850104175508022,-0.007507329806685448,0.9965217113494873,0.08264166116714478,-0.19140632450580597,-0.15234380960464478,9.652347564697266,0.0,0.001953126396983862,0.0
2621,-0.008850104175508022,-0.007507329806685448,0.9965217113494873,0.08264166116714478,-0.19140632450580597,-0.15234380960464478,9.652347564697266,-0.005859379190951586,0.0,-0.005859379190951586
2627,-0.008789069019258022,-0.007507329806685448,0.9965217113494873,0.08264166116714478,-0.19140632450580597,-0.15234380960464478,9.652347564697266,-0.005859379190951586,0.0,-0.005859379190951586
2633,-0.008789069019258022,-0.007507329806685448,0.9965217113494873,0.08264166116714478,-0.11328128725290298,-0.11328128725290298,9.648441314697266,-0.005859379190951586,0.0,-0.005859379190951586
2640,-0.008789069019258022,-0.007507329806685448,0.9965217113494873,0.08264166116714478,-0.15234380960464478,-0.15234380960464478,9.648441314697266,-0.005859379190951586,0.0,-0.005859379190951586
2647,-0.008789069019258022,-0.007507329806685448,0.9965217113494873,0.08264166116714478,-0.15234380960464478,-0.15234380960464478,9.648441314697266,0.007812505587935448,0.0,-0.001953126396983862
2654,-0.008789069019258022,-0.007507329806685448,0.9965217113494873,0.08264166116714478,-0.15234380960464478,-0.15234380960464478,9.648441314697266,0.007812505587935448,0.0,-0.001953126396983862
2660,-0.008789069019258022,-0.007507329806685448,0.9965217113494873,0.08264166116714478,-0.15234380960464478,-0.11328128725290298,9.609378814697266,0.007812505587935448,0.0,-0.001953126396983862
2666,-0.008789069019258022,-0.007507329806685448,0.9965217113494873,0.08264166116714478,-0.15234380960464478,-0.11328128725290298,9.609378814697266,0.001953126396983862,0.0,0.001953126396983862
2672,-0.008789069019258022,-0.007507329806685448,0.9965217113494873,0.08264166116714478,-0.15234380960464478,-0.15234380960464478,9.648441314697266,0.001953126396983862,0.0,0.001953126396983862
2679,-0.008789069019258022,-0.007507329806685448,0.9965217113494873,0.08264166116714478,-0.11328128725290298,-0.15234380960464478,9.609378814697266,0.001953126396983862,0.0,0.001953126396983862
2684,-0.008789069019258022,-0.007507329806685448,0.9965217113494873,0.08264166116714478,-0.11328128725290298,-0.15234380960464478,9.609378814697266,0.003906252793967724,-0.001953126396983862,0.0
2692,-0.008789069019258022,-0.007507329806685448,0.9965217113494873,0.08264166116714478,-0.11328128725290298,-0.15234380960464478,9.609378814697266,-0.003906252793967724,0.0,0.0
2699,-0.008789069019258022,-0.007507329806685448,0.9965217113494873,0.08264166116714478,-0.19140632450580597,-0.15234380960464478,9.687503814697266,-0.003906252793967724,0.0,0.0
2704,-0.008789069019258022,-0.007507329806685448,0.9965217113494873,0.08264166116714478,-0.19140632450580597,-0.15234380960464478,9.687503814697266,-0.005859379190951586,-0.005859379190951586,0.0
2711,-0.008789069019258022,-0.007507329806685448,0.9965217113494873,0.08264166116714478,-0.19140632450580597,-0.15234380960464478,9.687503814697266,0.001953126396983862,-0.003906252793967724,-0.003906252793967724
2716,-0.008789069019258022,-0.007507329806685448,0.9965217113494873,0.08264166116714478,-0.15234380960464478,-0.11328128725290298,9.609378814697266,0.001953126396983862,-0.003906252793967724,-0.003906252793967724
2723,-0.008789069019258022,-0.007507329806685448,0.9965217113494873,0.08264166116714478,-0.15234380960464478,-0.15234380960464478,9.648441314697266,0.001953126396983862,-0.003906252793967724,-0.003906252793967724
2728,-0.008789069019258022,-0.007507329806685448,0.9965217113494873,0.08264166116714478,-0.15234380960464478,-0.15234380960464478,9.648441314697266,-0.003906252793967724,0.0,-0.001953126396983862
2736,-0.008789069019258022,-0.007507329806685448,0.9965217113494873,0.08264166116714478,-0.15234380960464478,-0.15234380960464478,9.648441314697266,0.0,-0.003906252793967724,0.001953126396983862
2743,-0.008789069019258022,-0.007507329806685448,0.9965217113494873,0.08264166116714478,-0.15234380960464478,-0.15234380960464478,9.582035064697266,0.0,-0.003906252793967724,0.001953126396983862
2748,-0.008789069019258022,-0.007507329806685448,0.9965217113494873,0.08264166116714478,-0.15234380960464478,-0.15234380960464478,9.582035064697266,0.001953126396983862,-0.003906252793967724,-0.003906252793967724
2754,-0.008789069019258022,-0.007507329806685448,0.9965217113494873,0.08264166116714478,-0.15234380960464478,-0.15234380960464478,9.582035064697266,0.007812505587935448,-0.001953126396983862,0.003906252793967724
2761,-0.008789069019258022,-0.007507329806685448,0.9965217113494873,0.08264166116714478,-0.15234380960464478,-0.15234380960464478,9.582035064697266,-0.007812505587935448,-0.003906252793967724,0.0
2767,-0.008789069019258022,-0.007507329806685448,0.9965217113494873,0.08264166116714478,-0.15234380960464478,-0.15234380960464478,9.691410064697266,-0.007812505587935448,-0.003906252793967724,0.0
2772,-0.008789069019258022,-0.007507329806685448,0.9965217113494873,0.08264166116714478,-0.15234380960464478,-0.15234380960464478,9.691410064697266,-0.005859379190951586,0.0,0.001953126396983862
2779,-0.008789069019258022,-0.007507329806685448,0.9965217113494873,0.08264166116714478,-0.15234380960464478,-0.15234380960464478,9.648441314697266,-0.005859379190951586,0.0,0.001953126396983862
2786,-0.008728033863008022,-0.007507329806685448,0.9965217113494873,0.08264166116714478,-0.15234380960464478,-0.15234380960464478,9.648441314697266,-0.005859379190951586,0.0,0.001953126396983862
2792,-0.008728033863008022,-0.007507329806685448,0.9965217113494873,0.08264166116714478,-0.19140632450580597,-0.15234380960464478,9.613285064697266,-0.005859379190951586,0.0,0.001953126396983862
2798,-0.008728033863008022,-0.007507329806685448,0.9965217113494873,0.08264166116714478,-0.15234380960464478,-0.15234380960464478,9.648441314697266,-0.005859379190951586,0.0,0.001953126396983862
2804,-0.008728033863008022,-0.007507329806685448,0.9965217113494873,0.08264166116714478,-0.15234380960464478,-0.15234380960464478,9.648441314697266,0.001953126396983862,-0.003906252793967724,-0.001953126396983862
2809,-0.008728033863008022,-0.007507329806685448,0.9965217113494873,0.08264166116714478,-0.15234380960464478,-0.15234380960464478,9.648441314697266,0.001953126396983862,-0.003906252793967724,-0.001953126396983862
2817,-0.008728033863008022,-0.007507329806685448,0.9965217113494873,0.08264166116714478,-0.11328128725290298,-0.11328128725290298,9.648441314697266,0.001953126396983862,-0.003906252793967724,-0.001953126396983862
2823,-0.008728033863008022,-0.007507329806685448,0.9965217113494873,0.08264166116714478,-0.11328128725290298,-0.11328128725290298,9.648441314697266,0.003906252793967724,-0.001953126396983862,0.0
2829,-0.008728033863008022,-0.007507329806685448,0.9965217113494873,0.08264166116714478,-0.11328128725290298,-0.11328128725290298,9.648441314697266,0.0,-0.003906252793967724,0.001953126396983862
2836,-0.008728033863008022,-0.007507329806685448,0.9965217113494873,0.08264166116714478,-0.11328128725290298,-0.11328128725290298,9.648441314697266,0.0,-0.003906252793967724,0.001953126396983862
2842,-0.008728033863008022,-0.007507329806685448,0.9965217113494873,0.08264166116714478,-0.11328128725290298,-0.15234380960464478,9.648441314697266,0.0,-0.003906252793967724,0.001953126396983862
2848,-0.008728033863008022,-0.007507329806685448,0.9965217113494873,0.08264166116714478,-0.15234380960464478,-0.15234380960464478,9.648441314697266,0.0,-0.003906252793967724,0.001953126396983862
2855,-0.008728033863008022,-0.007507329806685448,0.9965217113494873,0.08264166116714478,-0.15234380960464478,-0.15234380960464478,9.648441314697266,0.001953126396983862,-0.001953126396983862,0.001953126396983862
2862,-0.008728033863008022,-0.007507329806685448,0.9965217113494873,0.08264166116714478,-0.15234380960464478,-0.15234380960464478,9.582035064697266,0.001953126396983862,-0.001953126396983862,0.001953126396983862
2867,-0.008728033863008022,-0.007507329806685448,0.9965217113494873,0.08264166116714478,-0.15234380960464478,-0.11328128725290298,9.648441314697266,0.001953126396983862,-0.001953126396983862,0.001953126396983862
2873,-0.008728033863008022,-0.007507329806685448,0.9965217113494873,0.08264166116714478,-0.19140632450580597,-0.15234380960464478,9.578128814697266,0.001953126396983862,-0.001953126396983862,0.001953126396983862
2880,-0.008728033863008022,-0.007507329806685448,0.9965217113494873,0.08264166116714478,-0.19140632450580597,-0.15234380960464478,9.578128814697266,0.001953126396983862,-0.001953126396983862,-0.005859379190951586
2887,-0.008728033863008022,-0.007507329806685448,0.9965217113494873,0.08264166116714478,-0.19140632450580597,-0.15234380960464478,9.652347564697266,0.001953126396983862,-0.001953126396983862,-0.005859379190951586
2894,-0.008728033863008022,-0.007507329806685448,0.9965217113494873,0.08264166116714478,-0.19140632450580597,-0.15234380960464478,9.652347564697266,-0.003906252793967724,-0.001953126396983862,0.001953126396983862
2900,-0.008728033863008022,-0.007507329806685448,0.9965217113494873,0.08264166116714478,-0.19140632450580597,-0.15234380960464478,9.652347564697266,-0.003906252793967724,-0.001953126396983862,0.001953126396983862
2907,-0.008728033863008022,-0.007507329806685448,0.9965217113494873,0.08264166116714478,-0.19140632450580597,-0.15234380960464478,9.652347564697266,-0.001953126396983862,-0.005859379190951586,0.0
2912,-0.008728033863008022,-0.007507329806685448,0.9965217113494873,0.08264166116714478,-0.19140632450580597,-0.15234380960464478,9.652347564697266,0.003906252793967724,0.0,-0.003906252793967724
2919,-0.008728033863008022,-0.007507329806685448,0.9965217113494873,0.08264166116714478,-0.19140632450580597,-0.15234380960464478,9.652347564697266,0.001953126396983862,-0.001953126396983862,0.0
2925,-0.008728033863008022,-0.007507329806685448,0.9965217113494873,0.08264166116714478,-0.15234380960464478,-0.15234380960464478,9.648441314697266,0.001953126396983862,-0.001953126396983862,0.0
2930,-0.008728033863008022,-0.007507329806685448,0.9965217113494873,0.08264166116714478,-0.15234380960464478,-0.15234380960464478,9.648441314697266,0.001953126396983862,-0.003906252793967724,0.0
2936,-0.008728033863008022,-0.007507329806685448,0.9965217113494873,0.08264166116714478,-0.15234380960464478,-0.15234380960464478,9.648441314697266,0.0,0.0,0.003906252793967724
2942,-0.008728033863008022,-0.007507329806685448,0.9965217113494873,0.08264166116714478,-0.15234380960464478,-0.15234380960464478,9.648441314697266,0.001953126396983862,0.003906252793967724,-0.003906252793967724
2949,-0.008728033863008022,-0.007507329806685448,0.9965217113494873,0.08264166116714478,-0.15234380960464478,-0.15234380960464478,9.648441314697266,0.003906252793967724,-0.001953126396983862,0.003906252793967724
2955,-0.008728033863008022,-0.007507329806685448,0.9965217113494873,0.08264166116714478,-0.15234380960464478,-0.15234380960464478,9.648441314697266,0.003906252793967724,-0.001953126396983862,0.003906252793967724
2961,-0.008728033863008022,-0.007507329806685448,0.9965217113494873,0.08264166116714478,-0.15234380960464478,-0.15234380960464478,9.648441314697266,0.001953126396983862,0.0,0.0
2966,-0.008728033863008022,-0.007507329806685448,0.9965217113494873,0.08264166116714478,-0.15234380960464478,-0.15234380960464478,9.648441314697266,-0.003906252793967724,-0.001953126396983862,0.003906252793967724
2973,-0.008728033863008022,-0.007507329806685448,0.9965217113494873,0.08264166116714478,-0.15234380960464478,-0.15234380960464478,9.648441314697266,0.001953126396983862,0.0,0.003906252793967724
2979,-0.008728033863008022,-0.007507329806685448,0.9965217113494873,0.08264166116714478,-0.15234380960464478,-0.15234380960464478,9.648441314697266,0.001953126396983862,0.0,0.003906252793967724
2984,-0.008728033863008022,-0.007507329806685448,0.9965217113494873,0.08264166116714478,-0.15234380960464478,-0.15234380960464478,9.648441314697266,-0.005859379190951586,0.003906252793967724,0.003906252793967724
2991,-0.008728033863008022,-0.007507329806685448,0.9965217113494873,0.08264166116714478,-0.15234380960464478,-0.15234380960464478,9.648441314697266,0.0,0.005859379190951586,0.001953126396983862
2997,-0.008728033863008022,-0.007507329806685448,0.9965217113494873,0.08264166116714478,-0.15234380960464478,-0.15234380960464478,9.648441314697266,0.011718758381903172,-0.003906252793967724,0.0
3003,-0.008728033863008022,-0.007507329806685448,0.9965217113494873,0.08264166116714478,-0.15234380960464478,-0.15234380960464478,9.648441314697266,0.0,-0.001953126396983862,0.001953126396983862
3010,-0.008728033863008022,-0.007507329806685448,0.9965217113494873,0.08264166116714478,-0.11328128725290298,-0.15234380960464478,9.648441314697266,0.0,-0.001953126396983862,0.001953126396983862
3015,-0.008728033863008022,-0.007507329806685448,0.9965217113494873,0.08264166116714478,-0.15234380960464478,-0.15234380960464478,9.648441314697266,0.0,-0.001953126396983862,0.001953126396983862
3021,-0.008728033863008022,-0.007507329806685448,0.9965217113494873,0.08264166116714478,-0.15234380960464478,-0.15234380960464478,9.648441314697266,-0.003906252793967724,0.003906252793967724,0.0
3028,-0.008728033863008022,-0.007507329806685448,0.9965217113494873,0.08264166116714478,-0.15234380960464478,-0.15234380960464478,9.648441314697266,0.003906252793967724,0.0,0.0
3035,-0.008728033863008022,-0.007507329806685448,0.9965217113494873,0.08264166116714478,-0.15234380960464478,-0.15234380960464478,9.609378814697266,0.003906252793967724,0.0,0.0
3041,-0.008728033863008022,-0.007507329806685448,0.9965217113494873,0.08264166116714478,-0.15234380960464478,-0.15234380960464478,9.609378814697266,0.0,0.007812505587935448,0.001953126396983862
3048,-0.008728033863008022,-0.007507329806685448,0.9965217113494873,0.08264166116714478,-0.15234380960464478,-0.15234380960464478,9.609378814697266,0.001953126396983862,-0.003906252793967724,-0.003906252793967724
3054,-0.008728033863008022,-0.007507329806685448,0.9965217113494873,0.08264166116714478,-0.23046883940696716,-0.11328128725290298,9.425785064697266,0.001953126396983862,-0.003906252793967724,-0.003906252793967724
3060,-0.008728033863008022,-0.007507329806685448,0.9965217113494873,0.08264166116714478,-0.23046883940696716,-0.11328128725290298,9.425785064697266,-0.007812505587935448,-0.007812505587935448,0.0
3067,-0.008728033863008022,-0.007507329806685448,0.9965217113494873,0.08264166116714478,-0.23046883940696716,-0.11328128725290298,9.425785064697266,-0.011718758381903172,0.011718758381903172,0.001953126396983862
3074,-0.008728033863008022,-0.007507329806685448,0.9965217113494873,0.08264166116714478,-0.23046883940696716,-0.15234380960464478,9.726566314697266,-0.011718758381903172,0.011718758381903172,0.001953126396983862
3081,-0.008728033863008022,-0.007507329806685448,0.9965217113494873,0.08264166116714478,-0.15234380960464478,-0.15234380960464478,9.691410064697266,-0.011718758381903172,0.011718758381903172,0.001953126396983862
3088,-0.008728033863008022,-0.007507329806685448,0.9965217113494873,0.08264166116714478,-0.15234380960464478,-0.15234380960464478,9.691410064697266,0.007812505587935448,-0.013671884313225746,0.003906252793967724
3094,-0.008728033863008022,-0.007507329806685448,0.9965217113494873,0.08264166116714478,-0.11328128725290298,-0.11328128725290298,9.542972564697266,0.007812505587935448,-0.013671884313225746,0.003906252793967724
3100,-0.008728033863008022,-0.007507329806685448,0.9965217113494873,0.08264166116714478,-0.11328128725290298,-0.15234380960464478,9.691410064697266,0.007812505587935448,-0.013671884313225746,0.003906252793967724
3107,-0.008728033863008022,-0.007507329806685448,0.9965217113494873,0.08264166116714478,-0.11328128725290298,-0.15234380960464478,9.691410064697266,-0.003906252793967724,0.011718758381903172,0.003906252793967724
3113,-0.008728033863008022,-0.007507329806685448,0.9965217113494873,0.08264166116714478,-0.19140632450580597,-0.19140632450580597,9.609378814697266,-0.003906252793967724,0.011718758381903172,0.003906252793967724
3120,-0.008728033863008022,-0.007507329806685448,0.9965217113494873,0.08264166116714478,-0.15234380960464478,-0.15234380960464478,9.542972564697266,-0.003906252793967724,0.011718758381903172,0.003906252793967724
3126,-0.008728033863008022,-0.007507329806685448,0.9965217113494873,0.08264166116714478,-0.15234380960464478,-0.15234380960464478,9.542972564697266,0.001953126396983862,0.003906252793967724,0.0
3133,-0.008728033863008022,-0.007507329806685448,0.9965217113494873,0.08264166116714478,-0.15234380960464478,-0.15234380960464478,9.609378814697266,0.001953126396983862,0.003906252793967724,0.0
3139,-0.008728033863008022,-0.007507329806685448,0.9965217113494873,0.08264166116714478,-0.15234380960464478,-0.15234380960464478,9.609378814697266,0.0,0.001953126396983862,-0.003906252793967724
3144,-0.008728033863008022,-0.007507329806685448,0.9965217113494873,0.08264166116714478,-0.15234380960464478,-0.15234380960464478,9.609378814697266,-0.003906252793967724,0.009765632450580597,0.001953126396983862
3151,-0.008728033863008022,-0.007507329806685448,0.9965217113494873,0.08264166116714478,-0.15234380960464478,-0.15234380960464478,9.609378814697266,-0.005859379190951586,0.007812505587935448,0.0
3158,-0.008728033863008022,-0.007507329806685448,0.9965217113494873,0.08264166116714478,-0.19140632450580597,-0.15234380960464478,9.578128814697266,-0.005859379190951586,0.007812505587935448,0.0
3163,-0.008728033863008022,-0.007507329806685448,0.9965217113494873,0.08264166116714478,-0.19140632450580597,-0.15234380960464478,9.578128814697266,-0.001953126396983862,-0.007812505587935448,0.003906252793967724
3169,-0.008728033863008022,-0.007507329806685448,0.9965217113494873,0.08264166116714478,-0.19140632450580597,-0.15234380960464478,9.578128814697266,0.0,-0.001953126396983862,-0.001953126396983862
3176,-0.008728033863008022,-0.007507329806685448,0.9965217113494873,0.08264166116714478,-0.19140632450580597,-0.15234380960464478,9.578128814697266,0.0,0.017578138038516045,0.0
3182,-0.008728033863008022,-0.007507329806685448,0.9965217113494873,0.08264166116714478,-0.26953133940696716,-0.11328128725290298,9.464847564697266,0.0,0.017578138038516045,0.0
3188,-0.008728033863008022,-0.007507329806685448,0.9965217113494873,0.08264166116714478,-0.26953133940696716,-0.11328128725290298,9.464847564697266,-0.005859379190951586,-0.009765632450580597,-0.003906252793967724
3194,-0.008728033863008022,-0.007507329806685448,0.9965217113494873,0.08264166116714478,-0.26953133940696716,-0.11328128725290298,9.464847564697266,0.0,-0.001953126396983862,0.005859379190951586
3201,-0.008728033863008022,-0.007507329806685448,0.9965217113494873,0.08264166116714478,-0.26953133940696716,-0.11328128725290298,9.464847564697266,0.001953126396983862,0.017578138038516045,0.0
3208,-0.008728033863008022,-0.007507329806685448,0.9965217113494873,0.08264166116714478,-0.15234380960464478,-0.15234380960464478,9.730472564697266,0.001953126396983862,0.017578138038516045,0.0
3213,-0.008728033863008022,-0.007507329806685448,0.9965217113494873,0.08264166116714478,-0.15234380960464478,-0.15234380960464478,9.730472564697266,0.009765632450580597,-0.005859379190951586,-0.003906252793967724
3219,-0.008728033863008022,-0.007507329806685448,0.9965217113494873,0.08264166116714478,-0.15234380960464478,-0.15234380960464478,9.730472564697266,0.005859379190951586,-0.015625011175870895,0.001953126396983862
3226,-0.008728033863008022,-0.007507329806685448,0.9965217113494873,0.08264166116714478,-0.15234380960464478,-0.15234380960464478,9.730472564697266,-0.007812505587935448,-0.009765632450580597,0.001953126396983862
3232,-0.008728033863008022,-0.007507329806685448,0.9965217113494873,0.08264166116714478,-0.07812502980232239,-0.15234380960464478,9.730472564697266,-0.007812505587935448,-0.009765632450580597,0.001953126396983862
3238,-0.008728033863008022,-0.007507329806685448,0.9965217113494873,0.08264166116714478,-0.07812502980232239,-0.15234380960464478,9.730472564697266,0.0,0.013671884313225746,0.001953126396983862
3246,-0.008728033863008022,-0.007507329806685448,0.9965217113494873,0.08264166116714478,-0.07812502980232239,-0.15234380960464478,9.730472564697266,0.001953126396983862,0.011718758381903172,0.003906252793967724
3252,-0.008728033863008022,-0.007507329806685448,0.9965217113494873,0.08264166116714478,-0.15234380960464478,-0.11328128725290298,9.582035064697266,0.001953126396983862,0.011718758381903172,0.003906252793967724
3258,-0.008728033863008022,-0.007507329806685448,0.9965217113494873,0.08264166116714478,-0.15234380960464478,-0.15234380960464478,9.542972564697266,0.001953126396983862,0.011718758381903172,0.003906252793967724
3265,-0.008728033863008022,-0.007507329806685448,0.9965217113494873,0.08264166116714478,-0.15234380960464478,-0.15234380960464478,9.542972564697266,-0.003906252793967724,-0.007812505587935448,0.003906252793967724
3271,-0.008728033863008022,-0.007507329806685448,0.9965217113494873,0.08264166116714478,-0.11328128725290298,-0.15234380960464478,9.609378814697266,-0.003906252793967724,-0.007812505587935448,0.003906252793967724
3278,-0.008728033863008022,-0.007507329806685448,0.9965217113494873,0.08264166116714478,-0.19140632450580597,-0.15234380960464478,9.652347564697266,-0.003906252793967724,-0.007812505587935448,0.003906252793967724
3286,-0.008728033863008022,-0.007507329806685448,0.9965217113494873,0.08264166116714478,-0.19140632450580597,-0.15234380960464478,9.652347564697266,0.001953126396983862,0.007812505587935448,0.0
3291,-0.008728033863008022,-0.007507329806685448,0.9965217113494873,0.08264166116714478,-0.15234380960464478,-0.15234380960464478,9.609378814697266,0.001953126396983862,0.007812505587935448,0.0
3297,-0.008728033863008022,-0.007507329806685448,0.9965217113494873,0.08264166116714478,-0.15234380960464478,-0.15234380960464478,9.648441314697266,0.001953126396983862,0.007812505587935448,0.0
3303,-0.008728033863008022,-0.007507329806685448,0.9965217113494873,0.08264166116714478,-0.15234380960464478,-0.15234380960464478,9.648441314697266,0.0,-0.003906252793967724,0.003906252793967724
3310,-0.008728033863008022,-0.007507329806685448,0.9965217113494873,0.08264166116714478,-0.15234380960464478,-0.15234380960464478,9.648441314697266,-0.003906252793967724,-0.001953126396983862,-0.001953126396983862
3316,-0.008728033863008022,-0.007507329806685448,0.9965217113494873,0.08264166116714478,-0.15234380960464478,-0.11328128725290298,9.609378814697266,-0.003906252793967724,-0.001953126396983862,-0.001953126396983862
3321,-0.008728033863008022,-0.007507329806685448,0.9965217113494873,0.08264166116714478,-0.15234380960464478,-0.11328128725290298,9.609378814697266,0.0,0.0,0.0
3328,-0.008728033863008022,-0.007507329806685448,0.9965217113494873,0.08264166116714478,-0.15234380960464478,-0.11328128725290298,9.609378814697266,0.0,0.0,-0.001953126396983862
3334,-0.008728033863008022,-0.007507329806685448,0.9965217113494873,0.08264166116714478,-0.15234380960464478,-0.11328128725290298,9.609378814697266,0.0,-0.001953126396983862,0.001953126396983862
3341,-0.008728033863008022,-0.007507329806685448,0.9965217113494873,0.08264166116714478,-0.15234380960464478,-0.15234380960464478,9.609378814697266,0.0,-0.001953126396983862,0.001953126396983862
3347,-0.008728033863008022,-0.007507329806685448,0.9965217113494873,0.08264166116714478,-0.15234380960464478,-0.15234380960464478,9.609378814697266,-0.007812505587935448,0.0,0.001953126396983862
3352,-0.008728033863008022,-0.007507329806685448,0.9965217113494873,0.08264166116714478,-0.15234380960464478,-0.15234380960464478,9.609378814697266,0.005859379190951586,0.0,0.0
3358,-0.008850104175508022,-0.00738525902852416,0.9965217113494873,0.08258062601089478,-0.15234380960464478,-0.15234380960464478,9.609378814697266,0.005859379190951586,0.0,0.0
3365,-0.008850104175508022,-0.00738525902852416,0.9965217113494873,0.08258062601089478,-0.19140632450580597,-0.15234380960464478,9.652347564697266,0.005859379190951586,0.0,0.0
3372,-0.008850104175508022,-0.00738525902852416,0.9965217113494873,0.08258062601089478,-0.15234380960464478,-0.15234380960464478,9.609378814697266,0.005859379190951586,0.0,0.0
3378,-0.008850104175508022,-0.00738525902852416,0.9965217113494873,0.08258062601089478,-0.15234380960464478,-0.15234380960464478,9.609378814697266,-0.005859379190951586,-0.005859379190951586,0.0
3385,-0.008789069019258022,-0.00738525902852416,0.9965217113494873,0.08258062601089478,-0.15234380960464478,-0.15234380960464478,9.609378814697266,-0.005859379190951586,-0.005859379190951586,0.0
3391,-0.008789069019258022,-0.00738525902852416,0.9965217113494873,0.08258062601089478,-0.15234380960464478,-0.15234380960464478,9.582035064697266,-0.005859379190951586,-0.005859379190951586,0.0
3397,-0.008789069019258022,-0.00738525902852416,0.9965217113494873,0.08258062601089478,-0.15234380960464478,-0.15234380960464478,9.582035064697266,0.003906252793967724,0.003906252793967724,0.0
3404,-0.008789069019258022,-0.00738525902852416,0.9965217113494873,0.08258062601089478,-0.15234380960464478,-0.15234380960464478,9.582035064697266,0.003906252793967724,0.003906252793967724,0.0
3410,-0.008789069019258022,-0.00738525902852416,0.9965217113494873,0.08258062601089478,-0.11328128725290298,-0.15234380960464478,9.648441314697266,0.003906252793967724,0.003906252793967724,0.0
3416,-0.008789069019258022,-0.00738525902852416,0.9965217113494873,0.08258062601089478,-0.11328128725290298,-0.15234380960464478,9.648441314697266,0.0,-0.003906252793967724,-0.003906252793967724
3422,-0.008789069019258022,-0.00738525902852416,0.9965217113494873,0.08258062601089478,-0.11328128725290298,-0.15234380960464478,9.648441314697266,-0.003906252793967724,-0.001953126396983862,0.003906252793967724
3429,-0.008728033863008022,-0.00738525902852416,0.9965217113494873,0.08258062601089478,-0.11328128725290298,-0.15234380960464478,9.648441314697266,-0.003906252793967724,-0.001953126396983862,0.003906252793967724
3435,-0.008728033863008022,-0.00738525902852416,0.9965217113494873,0.08258062601089478,-0.15234380960464478,-0.15234380960464478,9.648441314697266,-0.003906252793967724,-0.001953126396983862,0.003906252793967724
3440,-0.008728033863008022,-0.00738525902852416,0.9965217113494873,0.08258062601089478,-0.15234380960464478,-0.15234380960464478,9.609378814697266,-0.003906252793967724,-0.001953126396983862,0.003906252793967724
3446,-0.008728033863008022,-0.00738525902852416,0.9965217113494873,0.08258062601089478,-0.15234380960464478,-0.15234380960464478,9.609378814697266,0.001953126396983862,0.0,0.001953126396983862
3453,-0.008728033863008022,-0.00738525902852416,0.9965217113494873,0.08258062601089478,-0.15234380960464478,-0.15234380960464478,9.609378814697266,0.001953126396983862,0.0,0.001953126396983862
3460,-0.008728033863008022,-0.00738525902852416,0.9965217113494873,0.08258062601089478,-0.15234380960464478,-0.11328128725290298,9.691410064697266,0.001953126396983862,0.0,0.001953126396983862
3465,-0.008728033863008022,-0.00738525902852416,0.9965217113494873,0.08258062601089478,-0.15234380960464478,-0.11328128725290298,9.691410064697266,0.003906252793967724,0.0,0.0
3472,-0.008728033863008022,-0.00738525902852416,0.9965217113494873,0.08258062601089478,-0.15234380960464478,-0.11328128725290298,9.691410064697266,-0.003906252793967724,0.013671884313225746,0.0
3479,-0.008728033863008022,-0.00738525902852416,0.9965217113494873,0.08258062601089478,-0.15234380960464478,-0.15234380960464478,9.609378814697266,-0.003906252793967724,0.013671884313225746,0.0
3484,-0.008728033863008022,-0.00738525902852416,0.9965217113494873,0.08258062601089478,-0.15234380960464478,-0.15234380960464478,9.609378814697266,0.001953126396983862,-0.015625011175870895,0.0
3490,-0.008728033863008022,-0.00738525902852416,0.9965217113494873,0.08258062601089478,-0.07812502980232239,-0.15234380960464478,9.609378814697266,0.001953126396983862,-0.015625011175870895,0.0
3496,-0.008728033863008022,-0.00738525902852416,0.9965217113494873,0.08258062601089478,-0.07812502980232239,-0.15234380960464478,9.609378814697266,0.001953126396983862,0.009765632450580597,0.001953126396983862
3502,-0.008728033863008022,-0.00732422387227416,0.9965217113494873,0.08258062601089478,-0.07812502980232239,-0.15234380960464478,9.609378814697266,0.001953126396983862,0.009765632450580597,0.001953126396983862
3509,-0.008728033863008022,-0.00732422387227416,0.9965217113494873,0.08258062601089478,-0.15234380960464478,-0.15234380960464478,9.691410064697266,0.001953126396983862,0.009765632450580597,0.001953126396983862
3515,-0.008728033863008022,-0.00732422387227416,0.9965217113494873,0.08258062601089478,-0.15234380960464478,-0.15234380960464478,9.691410064697266,0.005859379190951586,-0.005859379190951586,0.003906252793967724
3521,-0.008728033863008022,-0.00732422387227416,0.9965217113494873,0.08258062601089478,-0.15234380960464478,-0.15234380960464478,9.691410064697266,0.009765632450580597,-0.007812505587935448,0.0
3528,-0.008728033863008022,-0.00732422387227416,0.9965217113494873,0.08258062601089478,-0.15234380960464478,-0.11328128725290298,9.609378814697266,0.009765632450580597,-0.007812505587935448,0.0
3533,-0.008728033863008022,-0.00732422387227416,0.9965217113494873,0.08258062601089478,-0.15234380960464478,-0.11328128725290298,9.609378814697266,0.0,-0.003906252793967724,0.003906252793967724
3539,-0.008728033863008022,-0.00732422387227416,0.9965217113494873,0.08258062601089478,-0.15234380960464478,-0.11328128725290298,9.609378814697266,0.0,0.001953126396983862,-0.003906252793967724
3547,-0.008728033863008022,-0.00732422387227416,0.9965217113494873,0.08258062601089478,-0.15234380960464478,-0.11328128725290298,9.609378814697266,0.0,-0.001953126396983862,-0.001953126396983862
3553,-0.008728033863008022,-0.00732422387227416,0.9965217113494873,0.08258062601089478,-0.15234380960464478,-0.11328128725290298,9.648441314697266,0.0,-0.001953126396983862,-0.001953126396983862
3559,-0.008728033863008022,-0.00732422387227416,0.9965217113494873,0.08258062601089478,-0.15234380960464478,-0.11328128725290298,9.648441314697266,0.0,0.0,0.001953126396983862
3565,-0.008728033863008022,-0.00732422387227416,0.9965217113494873,0.08258062601089478,-0.19140632450580597,-0.15234380960464478,9.539066314697266,0.0,0.0,0.001953126396983862
3571,-0.008728033863008022,-0.00732422387227416,0.9965217113494873,0.08258062601089478,-0.19140632450580597,-0.15234380960464478,9.539066314697266,0.003906252793967724,-0.013671884313225746,0.0
3577,-0.008728033863008022,-0.00732422387227416,0.9965217113494873,0.08258062601089478,-0.07812502980232239,-0.15234380960464478,9.648441314697266,0.003906252793967724,-0.013671884313225746,0.0
3584,-0.008728033863008022,-0.00732422387227416,0.9965217113494873,0.08258062601089478,-0.15234380960464478,-0.15234380960464478,9.730472564697266,0.003906252793967724,-0.013671884313225746,0.0
3590,-0.008728033863008022,-0.00732422387227416,0.9965217113494873,0.08258062601089478,-0.15234380960464478,-0.15234380960464478,9.730472564697266,0.001953126396983862,0.007812505587935448,-0.001953126396983862
3597,-0.008666998706758022,-0.00720215355977416,0.9965217113494873,0.08258062601089478,-0.15234380960464478,-0.15234380960464478,9.730472564697266,0.001953126396983862,0.007812505587935448,-0.001953126396983862
3603,-0.008666998706758022,-0.00720215355977416,0.9965217113494873,0.08258062601089478,-0.11328128725290298,-0.15234380960464478,9.503910064697266,0.001953126396983862,0.007812505587935448,-0.001953126396983862
3608,-0.008666998706758022,-0.00720215355977416,0.9965217113494873,0.08258062601089478,-0.11328128725290298,-0.15234380960464478,9.503910064697266,-0.007812505587935448,-0.005859379190951586,0.001953126396983862
3615,-0.008666998706758022,-0.00720215355977416,0.9965217113494873,0.08258062601089478,-0.11328128725290298,-0.15234380960464478,9.503910064697266,-0.011718758381903172,-0.001953126396983862,0.001953126396983862
3621,-0.008666998706758022,-0.00720215355977416,0.9965217113494873,0.08258062601089478,-0.15234380960464478,-0.15234380960464478,9.691410064697266,-0.011718758381903172,-0.001953126396983862,0.001953126396983862
3628,-0.008666998706758022,-0.00720215355977416,0.9965217113494873,0.08258062601089478,-0.15234380960464478,-0.15234380960464478,9.691410064697266,0.001953126396983862,0.0,0.003906252793967724
3634,-0.008666998706758022,-0.00720215355977416,0.9965217113494873,0.08258062601089478,-0.15234380960464478,-0.15234380960464478,9.609378814697266,0.001953126396983862,0.0,0.003906252793967724
3639,-0.008666998706758022,-0.00720215355977416,0.9965217113494873,0.08258062601089478,-0.15234380960464478,-0.15234380960464478,9.609378814697266,-0.005859379190951586,-0.003906252793967724,0.0
3646,-0.008666998706758022,-0.00720215355977416,0.9965217113494873,0.08258062601089478,-0.15234380960464478,-0.15234380960464478,9.609378814697266,-0.009765632450580597,-0.011718758381903172,0.001953126396983862
3653,-0.008666998706758022,-0.00720215355977416,0.9965217113494873,0.08258062601089478,-0.11328128725290298,-0.15234380960464478,9.648441314697266,-0.009765632450580597,-0.011718758381903172,0.001953126396983862
3658,-0.008666998706758022,-0.00720215355977416,0.9965217113494873,0.08258062601089478,-0.11328128725290298,-0.15234380960464478,9.648441314697266,0.0,0.009765632450580597,0.001953126396983862
3666,-0.008666998706758022,-0.00720215355977416,0.9965217113494873,0.08258062601089478,-0.11328128725290298,-0.15234380960464478,9.648441314697266,-0.001953126396983862,0.007812505587935448,0.001953126396983862
3672,-0.008666998706758022,-0.00720215355977416,0.9965217113494873,0.08258062601089478,-0.19140632450580597,-0.15234380960464478,9.613285064697266,-0.001953126396983862,0.007812505587935448,0.001953126396983862
3678,-0.008666998706758022,-0.00720215355977416,0.9965217113494873,0.08258062601089478,-0.19140632450580597,-0.15234380960464478,9.613285064697266,0.003906252793967724,-0.015625011175870895,0.001953126396983862
3684,-0.008666998706758022,-0.00720215355977416,0.9965217113494873,0.08258062601089478,-0.19140632450580597,-0.15234380960464478,9.613285064697266,-0.003906252793967724,-0.007812505587935448,0.001953126396983862
3690,-0.008666998706758022,-0.00720215355977416,0.9965217113494873,0.08258062601089478,-0.19140632450580597,-0.15234380960464478,9.613285064697266,0.001953126396983862,-0.007812505587935448,0.0
3696,-0.008666998706758022,-0.00720215355977416,0.9965217113494873,0.08258062601089478,-0.11328128725290298,-0.15234380960464478,9.609378814697266,0.001953126396983862,-0.007812505587935448,0.0
3702,-0.008666998706758022,-0.00720215355977416,0.9965217113494873,0.08258062601089478,-0.11328128725290298,-0.15234380960464478,9.609378814697266,0.0,0.001953126396983862,-0.001953126396983862
3708,-0.008666998706758022,-0.00720215355977416,0.9965217113494873,0.08258062601089478,-0.11328128725290298,-0.15234380960464478,9.609378814697266,-0.003906252793967724,0.0,0.001953126396983862
3715,-0.008483893238008022,-0.00726318871602416,0.9965217113494873,0.08258062601089478,-0.11328128725290298,-0.15234380960464478,9.609378814697266,-0.003906252793967724,0.0,0.001953126396983862
3722,-0.008483893238008022,-0.00726318871602416,0.9965217113494873,0.08258062601089478,-0.11328128725290298,-0.15234380960464478,9.609378814697266,-0.003906252793967724,0.0,0.001953126396983862
3728,-0.008483893238008022,-0.00726318871602416,0.9965217113494873,0.08258062601089478,-0.11328128725290298,-0.15234380960464478,9.609378814697266,0.003906252793967724,-0.001953126396983862,-0.003906252793967724
3734,-0.008483893238008022,-0.00726318871602416,0.9965217113494873,0.08258062601089478,-0.11328128725290298,-0.15234380960464478,9.609378814697266,0.001953126396983862,0.0,-0.001953126396983862
3740,-0.008483893238008022,-0.00726318871602416,0.9965217113494873,0.08258062601089478,-0.15234380960464478,-0.15234380960464478,9.691410064697266,0.001953126396983862,0.0,-0.001953126396983862
3746,-0.008483893238008022,-0.00726318871602416,0.9965217113494873,0.08258062601089478,-0.15234380960464478,-0.15234380960464478,9.609378814697266,0.001953126396983862,0.0,-0.001953126396983862
3752,-0.008483893238008022,-0.00726318871602416,0.9965217113494873,0.08258062601089478,-0.15234380960464478,-0.15234380960464478,9.609378814697266,0.003906252793967724,-0.007812505587935448,0.0
3760,-0.008483893238008022,-0.00726318871602416,0.9965217113494873,0.08258062601089478,-0.15234380960464478,-0.15234380960464478,9.609378814697266,0.0,-0.003906252793967724,0.003906252793967724
3766,-0.008483893238008022,-0.00726318871602416,0.9965217113494873,0.08258062601089478,-0.11328128725290298,-0.15234380960464478,9.609378814697266,0.0,-0.003906252793967724,0.003906252793967724
3772,-0.008483893238008022,-0.00726318871602416,0.9965217113494873,0.08258062601089478,-0.11328128725290298,-0.15234380960464478,9.609378814697266,0.005859379190951586,0.009765632450580597,-0.001953126396983862
3779,-0.008483893238008022,-0.00726318871602416,0.9965217113494873,0.08258062601089478,-0.11328128725290298,-0.15234380960464478,9.609378814697266,0.001953126396983862,-0.001953126396983862,0.001953126396983862
3785,-0.008483893238008022,-0.00726318871602416,0.9965217113494873,0.08258062601089478,-0.15234380960464478,-0.15234380960464478,9.648441314697266,0.001953126396983862,-0.001953126396983862,0.001953126396983862
3791,-0.008483893238008022,-0.00726318871602416,0.9965217113494873,0.08258062601089478,-0.15234380960464478,-0.15234380960464478,9.648441314697266,-0.007812505587935448,0.003906252793967724,0.005859379190951586
3799,-0.008483893238008022,-0.00726318871602416,0.9965217113494873,0.08258062601089478,-0.15234380960464478,-0.15234380960464478,9.648441314697266,0.0,-0.001953126396983862,0.0
3806,-0.008483893238008022,-0.00726318871602416,0.9965217113494873,0.08258062601089478,-0.15234380960464478,-0.15234380960464478,9.609378814697266,0.0,-0.001953126396983862,0.0
3812,-0.008483893238008022,-0.00726318871602416,0.9965217113494873,0.08258062601089478,-0.15234380960464478,-0.15234380960464478,9.609378814697266,0.0,-0.001953126396983862,0.0
3819,-0.008483893238008022,-0.00726318871602416,0.9965217113494873,0.08258062601089478,-0.15234380960464478,-0.15234380960464478,9.609378814697266,0.003906252793967724,-0.001953126396983862,-0.003906252793967724
3825,-0.008483893238008022,-0.00726318871602416,0.9965217113494873,0.08258062601089478,-0.15234380960464478,-0.19140632450580597,9.613285064697266,0.003906252793967724,-0.001953126396983862,-0.003906252793967724
3831,-0.008483893238008022,-0.00726318871602416,0.9965217113494873,0.08258062601089478,-0.15234380960464478,-0.15234380960464478,9.609378814697266,0.003906252793967724,-0.001953126396983862,-0.003906252793967724
3838,-0.008483893238008022,-0.00726318871602416,0.9965217113494873,0.08258062601089478,-0.15234380960464478,-0.15234380960464478,9.609378814697266,-0.003906252793967724,0.0,0.003906252793967724
3845,-0.008483893238008022,-0.00726318871602416,0.9965217113494873,0.08258062601089478,-0.15234380960464478,-0.15234380960464478,9.609378814697266,-0.003906252793967724,0.0,0.003906252793967724
3851,-0.008483893238008022,-0.00726318871602416,0.9965217113494873,0.08258062601089478,-0.15234380960464478,-0.11328128725290298,9.691410064697266,-0.003906252793967724,0.0,0.003906252793967724
3857,-0.008483893238008022,-0.00726318871602416,0.9965217113494873,0.08258062601089478,-0.15234380960464478,-0.11328128725290298,9.691410064697266,0.007812505587935448,0.007812505587935448,-0.001953126396983862
3864,-0.008483893238008022,-0.00726318871602416,0.9965217113494873,0.08258062601089478,-0.15234380960464478,-0.15234380960464478,9.691410064697266,0.007812505587935448,0.007812505587935448,-0.001953126396983862
3870,-0.008483893238008022,-0.00726318871602416,0.9965217113494873,0.08258062601089478,-0.15234380960464478,-0.15234380960464478,9.691410064697266,-0.003906252793967724,0.0,0.001953126396983862
3875,-0.008483893238008022,-0.00726318871602416,0.9965217113494873,0.08258062601089478,-0.15234380960464478,-0.15234380960464478,9.691410064697266,0.005859379190951586,-0.003906252793967724,0.001953126396983862
3883,-0.008483893238008022,-0.00726318871602416,0.9965217113494873,0.08258062601089478,-0.15234380960464478,-0.15234380960464478,9.691410064697266,0.0,0.0,0.001953126396983862
3889,-0.008483893238008022,-0.00726318871602416,0.9965217113494873,0.08258062601089478,-0.11328128725290298,-0.15234380960464478,9.691410064697266,0.0,0.0,0.001953126396983862
3895,-0.008483893238008022,-0.00726318871602416,0.9965217113494873,0.08258062601089478,-0.11328128725290298,-0.15234380960464478,9.691410064697266,0.001953126396983862,-0.001953126396983862,0.0
3900,-0.008483893238008022,-0.00726318871602416,0.9965217113494873,0.08258062601089478,-0.11328128725290298,-0.15234380960464478,9.691410064697266,0.001953126396983862,-0.003906252793967724,0.0
3906,-0.008483893238008022,-0.00726318871602416,0.9965217113494873,0.08258062601089478,-0.11328128725290298,-0.15234380960464478,9.691410064697266,0.001953126396983862,-0.001953126396983862,-0.001953126396983862
3912,-0.008361821994185448,-0.00708008324727416,0.9965217113494873,0.08258062601089478,-0.11328128725290298,-0.15234380960464478,9.691410064697266,0.001953126396983862,-0.001953126396983862,-0.001953126396983862
3919,-0.008361821994185448,-0.00708008324727416,0.9965217113494873,0.08258062601089478,-0.15234380960464478,-0.15234380960464478,9.609378814697266,0.001953126396983862,-0.001953126396983862,-0.001953126396983862
3924,-0.008361821994185448,-0.00708008324727416,0.9965217113494873,0.08258062601089478,-0.15234380960464478,-0.15234380960464478,9.609378814697266,-0.003906252793967724,0.0,0.005859379190951586
3931,-0.008361821994185448,-0.00708008324727416,0.9965217113494873,0.08258062601089478,-0.15234380960464478,-0.15234380960464478,9.609378814697266,0.003906252793967724,-0.001953126396983862,-0.005859379190951586
3938,-0.008361821994185448,-0.00708008324727416,0.9965217113494873,0.08258062601089478,-0.15234380960464478,-0.15234380960464478,9.609378814697266,0.003906252793967724,-0.001953126396983862,-0.005859379190951586
3944,-0.008361821994185448,-0.00708008324727416,0.9965217113494873,0.08258062601089478,-0.15234380960464478,-0.15234380960464478,9.648441314697266,0.003906252793967724,-0.001953126396983862,-0.005859379190951586
3950,-0.008361821994185448,-0.00708008324727416,0.9965217113494873,0.08258062601089478,-0.15234380960464478,-0.15234380960464478,9.648441314697266,-0.003906252793967724,0.0,0.001953126396983862
3957,-0.008300786837935448,-0.00701904809102416,0.9965217113494873,0.08258062601089478,-0.15234380960464478,-0.15234380960464478,9.648441314697266,-0.003906252793967724,0.0,0.001953126396983862
3963,-0.008300786837935448,-0.00701904809102416,0.9965217113494873,0.08258062601089478,-0.11328128725290298,-0.15234380960464478,9.609378814697266,-0.003906252793967724,0.0,0.001953126396983862
3970,-0.008300786837935448,-0.00701904809102416,0.9965217113494873,0.08258062601089478,-0.11328128725290298,-0.15234380960464478,9.609378814697266,0.0,0.001953126396983862,0.0
3976,-0.008300786837935448,-0.00701904809102416,0.9965217113494873,0.08258062601089478,-0.11328128725290298,-0.15234380960464478,9.609378814697266,0.001953126396983862,0.003906252793967724,0.001953126396983862
3982,-0.008300786837935448,-0.00701904809102416,0.9965217113494873,0.08251959085464478,-0.11328128725290298,-0.15234380960464478,9.609378814697266,0.001953126396983862,0.003906252793967724,0.001953126396983862
3988,-0.008300786837935448,-0.00701904809102416,0.9965217113494873,0.08251959085464478,-0.15234380960464478,-0.15234380960464478,9.648441314697266,0.001953126396983862,0.003906252793967724,0.001953126396983862
3994,-0.008300786837935448,-0.00701904809102416,0.9965217113494873,0.08251959085464478,-0.11328128725290298,-0.11328128725290298,9.648441314697266,0.001953126396983862,0.003906252793967724,0.001953126396983862
4000,-0.008300786837935448,-0.00701904809102416,0.9965217113494873,0.08251959085464478,-0.11328128725290298,-0.11328128725290298,9.648441314697266,0.001953126396983862,-0.001953126396983862,-0.003906252793967724
4007,-0.008300786837935448,-0.00701904809102416,0.9965217113494873,0.08258062601089478,-0.11328128725290298,-0.11328128725290298,9.648441314697266,0.001953126396983862,-0.001953126396983862,-0.003906252793967724
4014,-0.008300786837935448,-0.00701904809102416,0.9965217113494873,0.08258062601089478,-0.11328128725290298,-0.15234380960464478,9.648441314697266,0.001953126396983862,-0.001953126396983862,-0.003906252793967724
4020,-0.008300786837935448,-0.00701904809102416,0.9965217113494873,0.08258062601089478,-0.11328128725290298,-0.15234380960464478,9.648441314697266,-0.001953126396983862,-0.001953126396983862,0.0
4026,-0.008300786837935448,-0.00695801293477416,0.9965217113494873,0.08258062601089478,-0.11328128725290298,-0.15234380960464478,9.648441314697266,-0.001953126396983862,-0.001953126396983862,0.0
4033,-0.008300786837935448,-0.00695801293477416,0.9965217113494873,0.08258062601089478,-0.19140632450580597,-0.15234380960464478,9.613285064697266,-0.001953126396983862,-0.001953126396983862,0.0
4038,-0.008300786837935448,-0.00695801293477416,0.9965217113494873,0.08258062601089478,-0.19140632450580597,-0.15234380960464478,9.613285064697266,0.001953126396983862,0.0,0.003906252793967724
4045,-0.008300786837935448,-0.00695801293477416,0.9965217113494873,0.08258062601089478,-0.19140632450580597,-0.15234380960464478,9.613285064697266,0.003906252793967724,0.0,0.0
4051,-0.008300786837935448,-0.00695801293477416,0.9965217113494873,0.08258062601089478,-0.15234380960464478,-0.11328128725290298,9.609378814697266,0.003906252793967724,0.0,0.0
4059,-0.008300786837935448,-0.00695801293477416,0.9965217113494873,0.08258062601089478,-0.15234380960464478,-0.11328128725290298,9.609378814697266,-0.003906252793967724,0.003906252793967724,0.0
4064,-0.008300786837935448,-0.00695801293477416,0.9965217113494873,0.08258062601089478,-0.15234380960464478,-0.11328128725290298,9.609378814697266,0.0,0.0,0.003906252793967724
4070,-0.008300786837935448,-0.00695801293477416,0.9965217113494873,0.08258062601089478,-0.15234380960464478,-0.11328128725290298,9.609378814697266,0.001953126396983862,-0.007812505587935448,0.0
4076,-0.008300786837935448,-0.00695801293477416,0.9965217113494873,0.08258062601089478,-0.15234380960464478,-0.15234380960464478,9.609378814697266,0.001953126396983862,-0.007812505587935448,0.0
4082,-0.008300786837935448,-0.00695801293477416,0.9965217113494873,0.08258062601089478,-0.15234380960464478,-0.15234380960464478,9.648441314697266,0.001953126396983862,-0.007812505587935448,0.0
4088,-0.008300786837935448,-0.00695801293477416,0.9965217113494873,0.08258062601089478,-0.15234380960464478,-0.15234380960464478,9.648441314697266,0.0,0.003906252793967724,-0.003906252793967724
4096,-0.008361821994185448,-0.00695801293477416,0.9965217113494873,0.08258062601089478,-0.15234380960464478,-0.15234380960464478,9.648441314697266,0.0,0.003906252793967724,-0.003906252793967724
4102,-0.008361821994185448,-0.00695801293477416,0.9965217113494873,0.08258062601089478,-0.15234380960464478,-0.15234380960464478,9.648441314697266,0.0,0.003906252793967724,-0.003906252793967724
4108,-0.008361821994185448,-0.00695801293477416,0.9965217113494873,0.08258062601089478,-0.15234380960464478,-0.15234380960464478,9.648441314697266,-0.003906252793967724,0.001953126396983862,0.003906252793967724
4113,-0.008361821994185448,-0.00695801293477416,0.9965217113494873,0.08258062601089478,-0.15234380960464478,-0.15234380960464478,9.648441314697266,-0.005859379190951586,0.001953126396983862,0.0
4121,-0.008361821994185448,-0.00695801293477416,0.9965217113494873,0.08258062601089478,-0.15234380960464478,-0.15234380960464478,9.648441314697266,-0.003906252793967724,0.0,-0.001953126396983862
4127,-0.008361821994185448,-0.00695801293477416,0.9965217113494873,0.08258062601089478,-0.15234380960464478,-0.11328128725290298,9.609378814697266,-0.003906252793967724,0.0,-0.001953126396983862
4133,-0.008361821994185448,-0.00695801293477416,0.9965217113494873,0.08258062601089478,-0.15234380960464478,-0.15234380960464478,9.691410064697266,-0.003906252793967724,0.0,-0.001953126396983862
4141,-0.008361821994185448,-0.00695801293477416,0.9965217113494873,0.08258062601089478,-0.15234380960464478,-0.15234380960464478,9.691410064697266,0.0,0.001953126396983862,0.003906252793967724
4147,-0.008361821994185448,-0.00695801293477416,0.9965217113494873,0.08258062601089478,-0.15234380960464478,-0.15234380960464478,9.648441314697266,0.0,0.001953126396983862,0.003906252793967724
4153,-0.008361821994185448,-0.00695801293477416,0.9965217113494873,0.08258062601089478,-0.15234380960464478,-0.15234380960464478,9.609378814697266,0.0,0.001953126396983862,0.003906252793967724
4160,-0.008361821994185448,-0.00701904809102416,0.9965217113494873,0.08258062601089478,-0.15234380960464478,-0.15234380960464478,9.609378814697266,0.0,0.001953126396983862,0.003906252793967724
4166,-0.008361821994185448,-0.00701904809102416,0.9965217113494873,0.08258062601089478,-0.15234380960464478,-0.15234380960464478,9.609378814697266,0.0,0.001953126396983862,0.003906252793967724
4172,-0.008361821994185448,-0.00701904809102416,0.9965217113494873,0.08258062601089478,-0.15234380960464478,-0.11328128725290298,9.648441314697266,0.0,0.001953126396983862,0.003906252793967724
4178,-0.008361821994185448,-0.00701904809102416,0.9965217113494873,0.08258062601089478,-0.15234380960464478,-0.11328128725290298,9.648441314697266,0.003906252793967724,-0.001953126396983862,-0.003906252793967724
4186,-0.008361821994185448,-0.00701904809102416,0.9965217113494873,0.08258062601089478,-0.19140632450580597,-0.15234380960464478,9.652347564697266,0.003906252793967724,-0.001953126396983862,-0.003906252793967724
4192,-0.008361821994185448,-0.00701904809102416,0.9965217113494873,0.08258062601089478,-0.19140632450580597,-0.15234380960464478,9.652347564697266,-0.001953126396983862,-0.003906252793967724,0.0
4197,-0.008361821994185448,-0.00701904809102416,0.9965217113494873,0.08258062601089478,-0.19140632450580597,-0.15234380960464478,9.652347564697266,0.001953126396983862,0.0,0.001953126396983862
4204,-0.008361821994185448,-0.00701904809102416,0.9965217113494873,0.08258062601089478,-0.19140632450580597,-0.15234380960464478,9.652347564697266,-0.003906252793967724,0.001953126396983862,-0.001953126396983862
4210,-0.008361821994185448,-0.00701904809102416,0.9965217113494873,0.08258062601089478,-0.15234380960464478,-0.15234380960464478,9.609378814697266,-0.003906252793967724,0.001953126396983862,-0.001953126396983862
4216,-0.008361821994185448,-0.00701904809102416,0.9965217113494873,0.08258062601089478,-0.15234380960464478,-0.15234380960464478,9.609378814697266,0.0,-0.001953126396983862,-0.003906252793967724
4224,-0.008361821994185448,-0.00701904809102416,0.9965217113494873,0.08258062601089478,-0.15234380960464478,-0.15234380960464478,9.609378814697266,0.001953126396983862,-0.001953126396983862,0.001953126396983862
4230,-0.008361821994185448,-0.00701904809102416,0.9965217113494873,0.08258062601089478,-0.11328128725290298,-0.15234380960464478,9.609378814697266,0.001953126396983862,-0.001953126396983862,0.001953126396983862
4236,-0.008361821994185448,-0.00701904809102416,0.9965217113494873,0.08258062601089478,-0.11328128725290298,-0.15234380960464478,9.609378814697266,0.001953126396983862,-0.001953126396983862,0.0
4242,-0.008361821994185448,-0.00701904809102416,0.9965217113494873,0.08258062601089478,-0.15234380960464478,-0.15234380960464478,9.609378814697266,0.001953126396983862,-0.001953126396983862,0.0
4248,-0.008361821994185448,-0.00701904809102416,0.9965217113494873,0.08258062601089478,-0.15234380960464478,-0.15234380960464478,9.609378814697266,0.003906252793967724,-0.001953126396983862,-0.001953126396983862
4254,-0.008361821994185448,-0.00701904809102416,0.9965217113494873,0.08258062601089478,-0.19140632450580597,-0.15234380960464478,9.613285064697266,0.003906252793967724,-0.001953126396983862,-0.001953126396983862
4260,-0.008361821994185448,-0.00701904809102416,0.9965217113494873,0.08258062601089478,-0.15234380960464478,-0.15234380960464478,9.648441314697266,0.003906252793967724,-0.001953126396983862,-0.001953126396983862
4267,-0.008361821994185448,-0.00701904809102416,0.9965217113494873,0.08258062601089478,-0.15234380960464478,-0.15234380960464478,9.648441314697266,0.005859379190951586,-0.003906252793967724,0.0
4274,-0.008361821994185448,-0.00714111840352416,0.9965217113494873,0.08258062601089478,-0.15234380960464478,-0.15234380960464478,9.648441314697266,0.005859379190951586,-0.003906252793967724,0.0
4280,-0.008361821994185448,-0.00714111840352416,0.9965217113494873,0.08258062601089478,-0.15234380960464478,-0.15234380960464478,9.609378814697266,0.005859379190951586,-0.003906252793967724,0.0
4286,-0.008361821994185448,-0.00714111840352416,0.9965217113494873,0.08258062601089478,-0.15234380960464478,-0.15234380960464478,9.609378814697266,-0.001953126396983862,0.003906252793967724,0.001953126396983862
4291,-0.008361821994185448,-0.00714111840352416,0.9965217113494873,0.08258062601089478,-0.15234380960464478,-0.15234380960464478,9.609378814697266,0.003906252793967724,-0.007812505587935448,0.0
4298,-0.008361821994185448,-0.00714111840352416,0.9965217113494873,0.08258062601089478,-0.15234380960464478,-0.15234380960464478,9.609378814697266,-0.001953126396983862,-0.001953126396983862,0.0
4304,-0.008361821994185448,-0.00714111840352416,0.9965217113494873,0.08258062601089478,-0.15234380960464478,-0.19140632450580597,9.613285064697266,-0.001953126396983862,-0.001953126396983862,0.0
4311,-0.008361821994185448,-0.00714111840352416,0.9965217113494873,0.08258062601089478,-0.11328128725290298,-0.15234380960464478,9.582035064697266,-0.001953126396983862,-0.001953126396983862,0.0
4318,-0.008361821994185448,-0.00714111840352416,0.9965217113494873,0.08258062601089478,-0.11328128725290298,-0.15234380960464478,9.582035064697266,0.0,-0.005859379190951586,-0.001953126396983862
4324,-0.008361821994185448,-0.00714111840352416,0.9965217113494873,0.08258062601089478,-0.15234380960464478,-0.15234380960464478,9.648441314697266,0.0,-0.005859379190951586,-0.001953126396983862
4330,-0.008361821994185448,-0.00714111840352416,0.9965217113494873,0.08258062601089478,-0.15234380960464478,-0.15234380960464478,9.609378814697266,0.0,-0.005859379190951586,-0.001953126396983862
4335,-0.008361821994185448,-0.00714111840352416,0.9965217113494873,0.08258062601089478,-0.15234380960464478,-0.15234380960464478,9.609378814697266,0.001953126396983862,-0.003906252793967724,0.003906252793967724
4343,-0.008361821994185448,-0.00714111840352416,0.9965217113494873,0.08258062601089478,-0.15234380960464478,-0.15234380960464478,9.609378814697266,-0.005859379190951586,0.003906252793967724,0.0
4349,-0.008361821994185448,-0.00714111840352416,0.9965217113494873,0.08258062601089478,-0.15234380960464478,-0.15234380960464478,9.648441314697266,-0.005859379190951586,0.003906252793967724,0.0
4356,-0.008361821994185448,-0.00714111840352416,0.9965217113494873,0.08258062601089478,-0.15234380960464478,-0.15234380960464478,9.648441314697266,-0.001953126396983862,0.001953126396983862,-0.001953126396983862
4362,-0.008300786837935448,-0.00726318871602416,0.9965217113494873,0.08258062601089478,-0.15234380960464478,-0.15234380960464478,9.648441314697266,-0.001953126396983862,0.001953126396983862,-0.001953126396983862
4369,-0.008300786837935448,-0.00726318871602416,0.9965217113494873,0.08258062601089478,-0.15234380960464478,-0.15234380960464478,9.648441314697266,-0.001953126396983862,0.001953126396983862,-0.001953126396983862
4374,-0.008300786837935448,-0.00726318871602416,0.9965217113494873,0.08258062601089478,-0.15234380960464478,-0.15234380960464478,9.648441314697266,0.001953126396983862,0.003906252793967724,0.0
4381,-0.008300786837935448,-0.00726318871602416,0.9965217113494873,0.08258062601089478,-0.15234380960464478,-0.15234380960464478,9.648441314697266,0.001953126396983862,0.007812505587935448,0.003906252793967724
4387,-0.008300786837935448,-0.00726318871602416,0.9965217113494873,0.08258062601089478,-0.15234380960464478,-0.15234380960464478,9.609378814697266,0.001953126396983862,0.007812505587935448,0.003906252793967724
4393,-0.008300786837935448,-0.00726318871602416,0.9965217113494873,0.08258062601089478,-0.15234380960464478,-0.15234380960464478,9.609378814697266,-0.001953126396983862,0.005859379190951586,0.0
4400,-0.008300786837935448,-0.00726318871602416,0.9965217113494873,0.08258062601089478,-0.15234380960464478,-0.15234380960464478,9.609378814697266,-0.001953126396983862,0.005859379190951586,0.0
4405,-0.008300786837935448,-0.00726318871602416,0.9965217113494873,0.08258062601089478,-0.15234380960464478,-0.15234380960464478,9.609378814697266,0.0,-0.001953126396983862,0.003906252793967724
4411,-0.008361821994185448,-0.00726318871602416,0.9965217113494873,0.08258062601089478,-0.15234380960464478,-0.15234380960464478,9.609378814697266,0.0,-0.001953126396983862,0.003906252793967724
4418,-0.008361821994185448,-0.00726318871602416,0.9965217113494873,0.08258062601089478,-0.15234380960464478,-0.15234380960464478,9.648441314697266,0.0,-0.001953126396983862,0.003906252793967724
4424,-0.008361821994185448,-0.00726318871602416,0.9965217113494873,0.08258062601089478,-0.15234380960464478,-0.15234380960464478,9.648441314697266,-0.003906252793967724,-0.001953126396983862,0.0
4430,-0.008361821994185448,-0.00726318871602416,0.9965217113494873,0.08258062601089478,-0.15234380960464478,-0.15234380960464478,9.648441314697266,-0.001953126396983862,-0.001953126396983862,-0.005859379190951586
4438,-0.008361821994185448,-0.00726318871602416,0.9965217113494873,0.08258062601089478,-0.15234380960464478,-0.15234380960464478,9.691410064697266,-0.001953126396983862,-0.001953126396983862,-0.005859379190951586
4443,-0.008361821994185448,-0.00726318871602416,0.9965217113494873,0.08258062601089478,-0.15234380960464478,-0.15234380960464478,9.691410064697266,0.0,0.001953126396983862,0.0
4449,-0.008361821994185448,-0.00726318871602416,0.9965217113494873,0.08258062601089478,-0.15234380960464478,-0.15234380960464478,9.691410064697266,-0.001953126396983862,0.0,0.0
4455,-0.008361821994185448,-0.00726318871602416,0.9965217113494873,0.08258062601089478,-0.15234380960464478,-0.15234380960464478,9.691410064697266,-0.007812505587935448,-0.001953126396983862,0.001953126396983862
4462,-0.008361821994185448,-0.00732422387227416,0.9965217113494873,0.08258062601089478,-0.15234380960464478,-0.15234380960464478,9.691410064697266,-0.007812505587935448,-0.001953126396983862,0.001953126396983862
4468,-0.008361821994185448,-0.00732422387227416,0.9965217113494873,0.08258062601089478,-0.15234380960464478,-0.15234380960464478,9.691410064697266,0.003906252793967724,-0.003906252793967724,0.0
4474,-0.008361821994185448,-0.00732422387227416,0.9965217113494873,0.08258062601089478,-0.15234380960464478,-0.15234380960464478,9.691410064697266,-0.001953126396983862,0.007812505587935448,-0.001953126396983862
4481,-0.008361821994185448,-0.00732422387227416,0.9965217113494873,0.08258062601089478,-0.15234380960464478,-0.15234380960464478,9.691410064697266,-0.005859379190951586,0.001953126396983862,0.001953126396983862
4487,-0.008361821994185448,-0.00732422387227416,0.9965217113494873,0.08258062601089478,-0.15234380960464478,-0.15234380960464478,9.609378814697266,-0.005859379190951586,0.001953126396983862,0.001953126396983862
4493,-0.008361821994185448,-0.00732422387227416,0.9965217113494873,0.08258062601089478,-0.15234380960464478,-0.15234380960464478,9.609378814697266,0.0,-0.001953126396983862,0.001953126396983862
4498,-0.008361821994185448,-0.00732422387227416,0.9965217113494873,0.08258062601089478,-0.15234380960464478,-0.15234380960464478,9.609378814697266,0.001953126396983862,0.003906252793967724,-0.003906252793967724
4505,-0.008361821994185448,-0.00732422387227416,0.9965217113494873,0.08258062601089478,-0.15234380960464478,-0.15234380960464478,9.609378814697266,0.005859379190951586,-0.003906252793967724,0.0
4511,-0.008361821994185448,-0.00732422387227416,0.9965217113494873,0.08258062601089478,-0.15234380960464478,-0.15234380960464478,9.691410064697266,0.005859379190951586,-0.003906252793967724,0.0
4517,-0.008361821994185448,-0.00732422387227416,0.9965217113494873,0.08258062601089478,-0.15234380960464478,-0.15234380960464478,9.691410064697266,0.0,-0.003906252793967724,0.001953126396983862
4523,-0.008361821994185448,-0.00732422387227416,0.9965217113494873,0.08258062601089478,-0.15234380960464478,-0.15234380960464478,9.691410064697266,0.0,-0.001953126396983862,0.0
4529,-0.008361821994185448,-0.00732422387227416,0.9965217113494873,0.08258062601089478,-0.15234380960464478,-0.15234380960464478,9.691410064697266,0.003906252793967724,-0.009765632450580597,0.0
4535,-0.008300786837935448,-0.00732422387227416,0.9965217113494873,0.08264166116714478,-0.15234380960464478,-0.15234380960464478,9.691410064697266,0.003906252793967724,-0.009765632450580597,0.0
4541,-0.008300786837935448,-0.00732422387227416,0.9965217113494873,0.08264166116714478,-0.15234380960464478,-0.15234380960464478,9.609378814697266,0.003906252793967724,-0.009765632450580597,0.0
4547,-0.008300786837935448,-0.00732422387227416,0.9965217113494873,0.08264166116714478,-0.15234380960464478,-0.15234380960464478,9.609378814697266,0.003906252793967724,0.007812505587935448,0.0
4552,-0.008300786837935448,-0.00732422387227416,0.9965217113494873,0.08264166116714478,-0.15234380960464478,-0.15234380960464478,9.609378814697266,0.001953126396983862,0.003906252793967724,0.0
4560,-0.008300786837935448,-0.00732422387227416,0.9965217113494873,0.08264166116714478,-0.15234380960464478,-0.15234380960464478,9.609378814697266,-0.003906252793967724,-0.005859379190951586,0.0
4567,-0.008300786837935448,-0.00732422387227416,0.9965217113494873,0.08264166116714478,-0.15234380960464478,-0.15234380960464478,9.648441314697266,-0.003906252793967724,-0.005859379190951586,0.0
4573,-0.008300786837935448,-0.00732422387227416,0.9965217113494873,0.08264166116714478,-0.15234380960464478,-0.15234380960464478,9.648441314697266,-0.005859379190951586,0.0,-0.005859379190951586
4579,-0.008300786837935448,-0.00732422387227416,0.9965217113494873,0.08264166116714478,-0.15234380960464478,-0.15234380960464478,9.648441314697266,0.005859379190951586,0.0,0.001953126396983862
4585,-0.008300786837935448,-0.00732422387227416,0.9965217113494873,0.08264166116714478,-0.15234380960464478,-0.15234380960464478,9.609378814697266,0.005859379190951586,0.0,0.001953126396983862
4591,-0.008300786837935448,-0.00732422387227416,0.9965217113494873,0.08264166116714478,-0.15234380960464478,-0.15234380960464478,9.609378814697266,0.0,0.0,0.0
4598,-0.008300786837935448,-0.00732422387227416,0.9965217113494873,0.08264166116714478,-0.15234380960464478,-0.15234380960464478,9.609378814697266,0.0,0.0,0.0
4604,-0.008300786837935448,-0.00732422387227416,0.9965217113494873,0.08264166116714478,-0.11328128725290298,-0.15234380960464478,9.609378814697266,0.0,0.0,0.0
4611,-0.008300786837935448,-0.00732422387227416,0.9965217113494873,0.08264166116714478,-0.11328128725290298,-0.15234380960464478,9.609378814697266,0.0,0.0,0.0
4617,-0.008300786837935448,-0.00732422387227416,0.9965217113494873,0.08264166116714478,-0.11328128725290298,-0.19140632450580597,9.687503814697266,0.0,0.0,0.0
4623,-0.008300786837935448,-0.00732422387227416,0.9965217113494873,0.08264166116714478,-0.11328128725290298,-0.19140632450580597,9.687503814697266,0.0,0.0,0.0
4630,-0.008300786837935448,-0.00732422387227416,0.9965217113494873,0.08264166116714478,-0.19140632450580597,-0.15234380960464478,9.652347564697266,0.0,0.0,0.0
4636,-0.008300786837935448,-0.00732422387227416,0.9965217113494873,0.08264166116714478,-0.15234380960464478,-0.15234380960464478,9.648441314697266,0.0,0.0,0.0
4642,-0.008300786837935448,-0.00732422387227416,0.9965217113494873,0.08264166116714478,-0.15234380960464478,-0.15234380960464478,9.648441314697266,0.0,0.0,0.0
4648,-0.008300786837935448,-0.00732422387227416,0.9965217113494873,0.08264166116714478,-0.15234380960464478,-0.15234380960464478,9.609378814697266,0.0,0.0,0.0
4655,-0.008300786837935448,-0.00732422387227416,0.9965217113494873,0.08264166116714478,-0.15234380960464478,-0.15234380960464478,9.609378814697266,0.0,0.0,0.0
4660,-0.008300786837935448,-0.00732422387227416,0.9965217113494873,0.08264166116714478,-0.15234380960464478,-0.15234380960464478,9.609378814697266,0.0,0.0,0.0
4666,-0.008300786837935448,-0.00732422387227416,0.9965217113494873,0.08264166116714478,-0.15234380960464478,-0.15234380960464478,9.609378814697266,0.0,0.0,0.0
4673,-0.008300786837935448,-0.00732422387227416,0.9965217113494873,0.08264166116714478,-0.15234380960464478,-0.15234380960464478,9.609378814697266,0.0,0.0,0.0
4680,-0.008300786837935448,-0.00732422387227416,0.9965217113494873,0.08264166116714478,-0.19140632450580597,-0.15234380960464478,9.578128814697266,0.0,0.0,0.0
4685,-0.008300786837935448,-0.00732422387227416,0.9965217113494873,0.08264166116714478,-0.15234380960464478,-0.11328128725290298,9.609378814697266,0.0,0.0,0.0
4691,-0.008300786837935448,-0.00732422387227416,0.9965217113494873,0.08264166116714478,-0.15234380960464478,-0.11328128725290298,9.609378814697266,0.0,0.0,0.0
4698,-0.008300786837935448,-0.00732422387227416,0.9965217113494873,0.08264166116714478,-0.15234380960464478,-0.11328128725290298,9.609378814697266,0.0,0.0,0.0
4705,-0.008300786837935448,-0.00732422387227416,0.9965217113494873,0.08264166116714478,-0.19140632450580597,-0.15234380960464478,9.613285064697266,0.0,0.0,0.0
4710,-0.008300786837935448,-0.00732422387227416,0.9965217113494873,0.08264166116714478,-0.19140632450580597,-0.15234380960464478,9.613285064697266,0.0,0.0,0.0
4716,-0.008300786837935448,-0.00732422387227416,0.9965217113494873,0.08264166116714478,-0.19140632450580597,-0.15234380960464478,9.613285064697266,0.0,0.0,0.0
4723,-0.008300786837935448,-0.00732422387227416,0.9965217113494873,0.08264166116714478,-0.19140632450580597,-0.15234380960464478,9.613285064697266,0.0,0.0,0.0
4729,-0.008300786837935448,-0.00732422387227416,0.9965217113494873,0.08264166116714478,-0.15234380960464478,-0.15234380960464478,9.648441314697266,0.0,0.0,0.0
4736,-0.008300786837935448,-0.00732422387227416,0.9965217113494873,0.08264166116714478,-0.15234380960464478,-0.15234380960464478,9.648441314697266,0.0,0.0,0.0
4742,-0.008300786837935448,-0.00732422387227416,0.9965217113494873,0.08264166116714478,-0.15234380960464478,-0.15234380960464478,9.648441314697266,0.0,0.0,0.0
4748,-0.008300786837935448,-0.00732422387227416,0.9965217113494873,0.08264166116714478,-0.11328128725290298,-0.15234380960464478,9.609378814697266,0.0,0.0,0.0
4754,-0.008300786837935448,-0.00732422387227416,0.9965217113494873,0.08264166116714478,-0.11328128725290298,-0.15234380960464478,9.648441314697266,0.0,0.0,0.0
4761,-0.008300786837935448,-0.00732422387227416,0.9965217113494873,0.08264166116714478,-0.11328128725290298,-0.15234380960464478,9.648441314697266,0.0,0.0,0.0
4767,-0.008300786837935448,-0.00732422387227416,0.9965217113494873,0.08264166116714478,-0.23046883940696716,-0.11328128725290298,9.613285064697266,0.0,0.0,0.0
4773,-0.008300786837935448,-0.00732422387227416,0.9965217113494873,0.08264166116714478,-0.11328128725290298,-0.19140632450580597,9.687503814697266,0.0,0.0,0.0
4780,-0.008300786837935448,-0.00732422387227416,0.9965217113494873,0.08264166116714478,-0.11328128725290298,-0.19140632450580597,9.687503814697266,0.003906252793967724,-0.021484389901161194,0.003906252793967724
4785,-0.008300786837935448,-0.00732422387227416,0.9965217113494873,0.08264166116714478,-0.11328128725290298,-0.19140632450580597,9.687503814697266,-0.001953126396983862,-0.011718758381903172,0.0
4792,-0.008300786837935448,-0.00732422387227416,0.9965217113494873,0.08264166116714478,-0.11328128725290298,-0.19140632450580597,9.687503814697266,0.001953126396983862,-0.005859379190951586,0.003906252793967724
4799,-0.008300786837935448,-0.00732422387227416,0.9965217113494873,0.08264166116714478,0.15234380960464478,-0.26953133940696716,9.847660064697266,0.001953126396983862,-0.005859379190951586,0.003906252793967724
4804,-0.008300786837935448,-0.00732422387227416,0.9965217113494873,0.08264166116714478,0.15234380960464478,-0.26953133940696716,9.847660064697266,0.10156257450580597,0.14453135430812836,-0.005859379190951586
4811,-0.008300786837935448,-0.00732422387227416,0.9965217113494873,0.08264166116714478,0.15234380960464478,-0.26953133940696716,9.847660064697266,0.18554700911045074,0.3613283932209015,-0.007812505587935448
4817,-0.008300786837935448,-0.00732422387227416,0.9965217113494873,0.08264166116714478,0.6523439884185791,0.07812502980232239,10.992191314697266,0.18554700911045074,0.3613283932209015,-0.007812505587935448
4824,-0.008300786837935448,-0.00732422387227416,0.9965217113494873,0.08264166116714478,0.6523439884185791,0.07812502980232239,10.992191314697266,0.3437502384185791,0.9902350902557373,-0.07421880215406418
4831,-0.008300786837935448,-0.00732422387227416,0.9965217113494873,0.08264166116714478,0.6523439884185791,0.07812502980232239,10.992191314697266,0.19531263411045074,0.710938036441803,-0.07421880215406418
4838,-0.018310559913516045,-0.0026245135813951492,0.9963386058807373,0.08331304788589478,0.6523439884185791,0.07812502980232239,10.992191314697266,0.19531263411045074,0.710938036441803,-0.07421880215406418
4843,-0.018310559913516045,-0.0026245135813951492,0.9963386058807373,0.08331304788589478,-0.8828127980232239,-0.039062514901161194,9.26562786102295,0.19531263411045074,0.710938036441803,-0.07421880215406418
4849,-0.018310559913516045,-0.0026245135813951492,0.9963386058807373,0.08331304788589478,-1.2265629768371582,-0.19140632450580597,9.500003814697266,0.19531263411045074,0.710938036441803,-0.07421880215406418
4857,-0.018310559913516045,-0.0026245135813951492,0.9963386058807373,0.08331304788589478,-1.2265629768371582,-0.19140632450580597,9.500003814697266,0.17187511920928955,-0.027343768626451492,0.005859379190951586
4864,-0.018310559913516045,-0.0026245135813951492,0.9963386058807373,0.08331304788589478,-0.38281264901161194,-0.5742189288139343,10.070316314697266,0.17187511920928955,-0.027343768626451492,0.005859379190951586
4870,-0.018310559913516045,-0.0026245135813951492,0.9963386058807373,0.08331304788589478,0.6132814884185791,-0.30468761920928955,10.917972564697266,0.17187511920928955,-0.027343768626451492,0.005859379190951586
4877,-0.018737806007266045,0.0011596687836572528,0.9963386058807373,0.08374029397964478,0.6132814884185791,-0.30468761920928955,10.917972564697266,0.17187511920928955,-0.027343768626451492,0.005859379190951586
4883,-0.018737806007266045,0.0011596687836572528,0.9963386058807373,0.08374029397964478,0.19140632450580597,0.8828127980232239,9.425785064697266,0.17187511920928955,-0.027343768626451492,0.005859379190951586
4888,-0.018737806007266045,0.0011596687836572528,0.9963386058807373,0.08374029397964478,0.19140632450580597,0.8828127980232239,9.425785064697266,0.23632828891277313,0.13281258940696716,-0.12695321440696716
4894,-0.018737806007266045,0.0011596687836572528,0.9963386058807373,0.08374029397964478,0.19140632450580597,0.8828127980232239,9.425785064697266,0.22265641391277313,0.12890633940696716,-0.13476571440696716
4901,-0.018737806007266045,0.0011596687836572528,0.9963386058807373,0.08374029397964478,0.19140632450580597,0.8828127980232239,9.425785064697266,0.17578136920928955,0.15234385430812836,-0.08007818460464478
4908,-0.018737806007266045,0.0011596687836572528,0.9963386058807373,0.08374029397964478,0.19140632450580597,0.8828127980232239,9.425785064697266,0.052734412252902985,0.08398443460464478,0.052734412252902985
4914,-0.018737806007266045,0.0011596687836572528,0.9963386058807373,0.08374029397964478,0.19140632450580597,0.8828127980232239,9.425785064697266,0.07617192715406418,-0.050781287252902985,0.03906252980232239
4921,-0.018737806007266045,0.0011596687836572528,0.9963386058807373,0.08374029397964478,0.19140632450580597,0.8828127980232239,9.425785064697266,0.08593755960464478,-0.20507827401161194,-0.019531264901161194
4927,-0.018737806007266045,0.0011596687836572528,0.9963386058807373,0.08374029397964478,0.26953133940696716,-0.039062514901161194,10.386722564697266,0.08593755960464478,-0.20507827401161194,-0.019531264901161194
4933,-0.018737806007266045,0.0011596687836572528,0.9963386058807373,0.08374029397964478,0.26953133940696716,-0.039062514901161194,10.386722564697266,0.06250004470348358,-0.13867197930812836,-0.08007818460464478
4940,-0.018737806007266045,0.0011596687836572528,0.9963386058807373,0.08374029397964478,0.26953133940696716,-0.039062514901161194,10.386722564697266,0.050781287252902985,0.021484389901161194,-0.005859379190951586
4946,-0.018737806007266045,0.0011596687836572528,0.9963386058807373,0.08374029397964478,-1.8789069652557373,-0.4960939288139343,8.73828411102295,0.050781287252902985,0.021484389901161194,-0.005859379190951586
4953,-0.018737806007266045,0.0011596687836572528,0.9963386058807373,0.08374029397964478,-0.42187514901161194,0.23046883940696716,6.511721134185791,0.050781287252902985,0.021484389901161194,-0.005859379190951586
4959,-0.018737806007266045,0.0011596687836572528,0.9963386058807373,0.08374029397964478,-0.42187514901161194,0.23046883940696716,6.511721134185791,-0.04296877980232239,0.005859379190951586,0.18945325911045074
4965,-0.018737806007266045,0.006042484659701586,0.9963386058807373,0.08355718851089478,-0.42187514901161194,0.23046883940696716,6.511721134185791,-0.04296877980232239,0.005859379190951586,0.18945325911045074
4972,-0.018737806007266045,0.006042484659701586,0.9963386058807373,0.08355718851089478,0.23046883940696716,0.8046877980232239,12.910161018371582,-0.04296877980232239,0.005859379190951586,0.18945325911045074
4977,-0.018737806007266045,0.006042484659701586,0.9963386058807373,0.08355718851089478,0.23046883940696716,0.8046877980232239,12.910161018371582,0.001953126396983862,0.019531264901161194,0.13867197930812836
4983,-0.018737806007266045,0.006042484659701586,0.9963386058807373,0.08355718851089478,0.23046883940696716,0.8046877980232239,12.910161018371582,0.08007818460464478,0.009765632450580597,0.07226567715406418
4990,-0.018127454444766045,0.006225590594112873,0.9964606761932373,0.08215337991714478,0.23046883940696716,0.8046877980232239,12.910161018371582,0.08007818460464478,0.009765632450580597,0.07226567715406418
4997,-0.018127454444766045,0.006225590594112873,0.9964606761932373,0.08215337991714478,-0.9570316076278687,1.4921879768371582,9.687503814697266,0.08007818460464478,0.009765632450580597,0.07226567715406418
5003,-0.018127454444766045,0.006225590594112873,0.9964606761932373,0.08215337991714478,-0.9570316076278687,1.4921879768371582,9.687503814697266,0.21679702401161194,0.009765632450580597,-0.019531264901161194
5010,-0.018127454444766045,0.006225590594112873,0.9964606761932373,0.08215337991714478,-0.9570316076278687,1.4921879768371582,9.687503814697266,0.23242203891277313,0.019531264901161194,-0.052734412252902985
5016,-0.018127454444766045,0.006225590594112873,0.9964606761932373,0.08215337991714478,-0.23046883940696716,1.6835943460464478,10.730472564697266,0.23242203891277313,0.019531264901161194,-0.052734412252902985
5022,-0.018127454444766045,0.006225590594112873,0.9964606761932373,0.08215337991714478,-0.6132814884185791,1.2656254768371582,10.652347564697266,0.23242203891277313,0.019531264901161194,-0.052734412252902985
5029,-0.018127454444766045,0.006225590594112873,0.9964606761932373,0.08215337991714478,-0.6132814884185791,1.2656254768371582,10.652347564697266,0.3945315182209015,-0.06640629470348358,-0.24609392881393433
5036,-0.018127454444766045,0.006225590594112873,0.9964606761932373,0.08215337991714478,-0.8046877980232239,1.4179692268371582,9.578128814697266,0.3945315182209015,-0.06640629470348358,-0.24609392881393433
5042,-0.018127454444766045,0.006225590594112873,0.9964606761932373,0.08215337991714478,-0.8046877980232239,1.1484378576278687,9.12109661102295,0.3945315182209015,-0.06640629470348358,-0.24609392881393433
5048,-0.018127454444766045,0.006225590594112873,0.9964606761932373,0.08215337991714478,-0.8046877980232239,1.1484378576278687,9.12109661102295,0.3808596432209015,-0.20898452401161194,-0.22460953891277313
5053,-0.015625011175870895,0.015869151800870895,0.9959113597869873,0.08752447366714478,-0.8046877980232239,1.1484378576278687,9.12109661102295,0.3808596432209015,-0.20898452401161194,-0.22460953891277313
5060,-0.015625011175870895,0.015869151800870895,0.9959113597869873,0.08752447366714478,-0.9179691076278687,-0.039062514901161194,9.464847564697266,0.3808596432209015,-0.20898452401161194,-0.22460953891277313
5066,-0.015625011175870895,0.015869151800870895,0.9959113597869873,0.08752447366714478,-0.9179691076278687,-0.039062514901161194,9.464847564697266,0.3339846134185791,-0.11523445695638657,-0.048828158527612686
5072,-0.015625011175870895,0.015869151800870895,0.9959113597869873,0.08752447366714478,-0.9179691076278687,-0.039062514901161194,9.464847564697266,0.3046877086162567,-0.08789068460464478,-0.054687537252902985
5080,-0.015625011175870895,0.015869151800870895,0.9959113597869873,0.08752447366714478,-0.9179691076278687,-0.039062514901161194,9.464847564697266,0.2968752086162567,-0.06640629470348358,-0.08789068460464478
5086,-0.015625011175870895,0.015869151800870895,0.9959113597869873,0.08752447366714478,-1.4570317268371582,0.07812502980232239,9.464847564697266,0.2968752086162567,-0.06640629470348358,-0.08789068460464478
5092,-0.015625011175870895,0.015869151800870895,0.9959113597869873,0.08752447366714478,-1.4570317268371582,0.07812502980232239,9.464847564697266,0.2851564586162567,-0.11132820695638657,-0.21875014901161194
5098,-0.015625011175870895,0.015869151800870895,0.9959113597869873,0.08752447366714478,-1.4570317268371582,0.07812502980232239,9.464847564697266,0.3027345836162567,-0.11914070695638657,-0.2812502086162567
5104,-0.015625011175870895,0.015869151800870895,0.9959113597869873,0.08752447366714478,-1.4179692268371582,1.1093753576278687,10.613285064697266,0.3027345836162567,-0.11914070695638657,-0.2812502086162567
5110,-0.015625011175870895,0.015869151800870895,0.9959113597869873,0.08752447366714478,-1.4179692268371582,1.1093753576278687,10.613285064697266,0.3984377980232239,-0.06835942715406418,-0.48046910762786865
5117,-0.015625011175870895,0.015869151800870895,0.9959113597869873,0.08752447366714478,-1.4179692268371582,1.1093753576278687,10.613285064697266,0.4238284230232239,-0.06640629470348358,-0.5312503576278687
5125,-0.015625011175870895,0.015869151800870895,0.9959113597869873,0.08752447366714478,-1.0742191076278687,0.7265627384185791,9.26953411102295,0.4238284230232239,-0.06640629470348358,-0.5312503576278687
5131,-0.015625011175870895,0.015869151800870895,0.9959113597869873,0.08752447366714478,-0.5351564288139343,0.19140632450580597,9.30859661102295,0.4238284230232239,-0.06640629470348358,-0.5312503576278687
5136,-0.015625011175870895,0.015869151800870895,0.9959113597869873,0.08752447366714478,-0.5351564288139343,0.19140632450580597,9.30859661102295,0.4375002980232239,-0.3320314884185791,-0.5683597922325134
5142,-0.008178716525435448,0.03137209266424179,0.9942634105682373,0.10192878544330597,-0.5351564288139343,0.19140632450580597,9.30859661102295,0.4375002980232239,-0.3320314884185791,-0.5683597922325134
5149,-0.008178716525435448,0.03137209266424179,0.9942634105682373,0.10192878544330597,0.19140632450580597,0.42187514901161194,9.964847564697266,0.4375002980232239,-0.3320314884185791,-0.5683597922325134
5155,-0.008178716525435448,0.03137209266424179,0.9942634105682373,0.10192878544330597,0.19140632450580597,0.42187514901161194,9.964847564697266,0.3886721432209015,-0.3554690182209015,-0.5097659826278687
5160,-0.008178716525435448,0.03137209266424179,0.9942634105682373,0.10192878544330597,0.19140632450580597,0.42187514901161194,9.964847564697266,0.3320314884185791,-0.2988283336162567,-0.49414098262786865
5169,-0.00354004162363708,0.03582766279578209,0.9934699535369873,0.10858161747455597,0.19140632450580597,0.42187514901161194,9.964847564697266,0.3320314884185791,-0.2988283336162567,-0.49414098262786865
5175,-0.00354004162363708,0.03582766279578209,0.9934699535369873,0.10858161747455597,1.1484378576278687,0.6132814884185791,11.113285064697266,0.3320314884185791,-0.2988283336162567,-0.49414098262786865
5181,-0.00354004162363708,0.03582766279578209,0.9934699535369873,0.10858161747455597,1.1484378576278687,0.6132814884185791,11.113285064697266,-0.015625011175870895,0.09179694205522537,-0.3339846134185791
5188,-0.00354004162363708,0.03582766279578209,0.9934699535369873,0.10858161747455597,1.1484378576278687,0.6132814884185791,11.113285064697266,-0.10546882450580597,0.21484389901161194,-0.2910158336162567
5194,-0.00354004162363708,0.03582766279578209,0.9934699535369873,0.10858161747455597,1.1093753576278687,0.6523439884185791,10.957035064697266,-0.10546882450580597,0.21484389901161194,-0.2910158336162567
5200,-0.00354004162363708,0.03582766279578209,0.9934699535369873,0.10858161747455597,1.1093753576278687,0.6523439884185791,10.957035064697266,-0.24609392881393433,0.49023473262786865,-0.18359388411045074
5208,-0.00354004162363708,0.03582766279578209,0.9934699535369873,0.10858161747455597,1.1093753576278687,0.6523439884185791,10.957035064697266,-0.2636720538139343,0.5253909826278687,-0.15234385430812836
5214,-0.00354004162363708,0.03582766279578209,0.9934699535369873,0.10858161747455597,0.0,0.6914064884185791,10.269535064697266,-0.2636720538139343,0.5253909826278687,-0.15234385430812836
5219,-0.00354004162363708,0.03582766279578209,0.9934699535369873,0.10858161747455597,-0.6132814884185791,0.8046877980232239,9.925785064697266,-0.2636720538139343,0.5253909826278687,-0.15234385430812836
5225,-0.00354004162363708,0.03582766279578209,0.9934699535369873,0.10858161747455597,-0.7656252980232239,0.7265627384185791,9.925785064697266,-0.2636720538139343,0.5253909826278687,-0.15234385430812836
5232,-0.00354004162363708,0.03582766279578209,0.9934699535369873,0.10858161747455597,-0.7656252980232239,0.7265627384185791,9.925785064697266,-0.3750002682209015,0.4082034230232239,-0.08203130960464478
5239,-0.00354004162363708,0.03582766279578209,0.9934699535369873,0.10858161747455597,-1.3398442268371582,0.7265627384185791,9.847660064697266,-0.3750002682209015,0.4082034230232239,-0.08203130960464478
5246,-0.00354004162363708,0.03582766279578209,0.9934699535369873,0.10858161747455597,-1.3398442268371582,0.7265627384185791,9.847660064697266,-0.4023440480232239,0.19335950911045074,-0.15039072930812836
5253,-0.00354004162363708,0.03582766279578209,0.9934699535369873,0.10858161747455597,-1.0351566076278687,0.19140632450580597,10.113285064697266,-0.4023440480232239,0.19335950911045074,-0.15039072930812836
5259,-0.00354004162363708,0.03582766279578209,0.9934699535369873,0.10858161747455597,-0.9570316076278687,0.0,10.265628814697266,-0.4023440480232239,0.19335950911045074,-0.15039072930812836
5265,-0.00354004162363708,0.03582766279578209,0.9934699535369873,0.10858161747455597,-0.9570316076278687,0.0,10.265628814697266,-0.49609410762786865,-0.044921908527612686,-0.21679702401161194
5272,-0.00354004162363708,0.03582766279578209,0.9934699535369873,0.10858161747455597,-0.8828127980232239,-0.19140632450580597,10.496097564697266,-0.49609410762786865,-0.044921908527612686,-0.21679702401161194
5278,-0.00354004162363708,0.03582766279578209,0.9934699535369873,0.10858161747455597,-0.7265627384185791,-0.30468761920928955,10.769535064697266,-0.49609410762786865,-0.044921908527612686,-0.21679702401161194
5284,-0.00354004162363708,0.03582766279578209,0.9934699535369873,0.10858161747455597,-0.7265627384185791,-0.30468761920928955,10.769535064697266,-0.6367192268371582,-0.12500008940696716,-0.24414080381393433
5292,-0.018066419288516045,0.017578138038516045,0.9924323558807373,0.12042245268821716,-0.7265627384185791,-0.30468761920928955,10.769535064697266,-0.6367192268371582,-0.12500008940696716,-0.24414080381393433
5297,-0.018066419288516045,0.017578138038516045,0.9924323558807373,0.12042245268821716,-0.8437502980232239,0.039062514901161194,10.953128814697266,-0.6367192268371582,-0.12500008940696716,-0.24414080381393433
5303,-0.018066419288516045,0.017578138038516045,0.9924323558807373,0.12042245268821716,-0.8437502980232239,0.039062514901161194,10.953128814697266,-0.8476568460464478,-0.06640629470348358,-0.2871095836162567
5309,-0.018066419288516045,0.017578138038516045,0.9924323558807373,0.12042245268821716,-0.8437502980232239,0.039062514901161194,10.953128814697266,-0.9082037806510925,-0.07421880215406418,-0.3027345836162567
5315,-0.018371595069766045,0.00726318871602416,0.9921271800994873,0.12371835112571716,-0.8437502980232239,0.039062514901161194,10.953128814697266,-0.9082037806510925,-0.07421880215406418,-0.3027345836162567
5321,-0.018371595069766045,0.00726318871602416,0.9921271800994873,0.12371835112571716,-0.5351564288139343,-0.07812502980232239,10.230472564697266,-0.9082037806510925,-0.07421880215406418,-0.3027345836162567
5328,-0.018371595069766045,0.00726318871602416,0.9921271800994873,0.12371835112571716,-0.30468761920928955,-0.34375011920928955,9.925785064697266,-0.9082037806510925,-0.07421880215406418,-0.3027345836162567
5335,-0.018371595069766045,0.00726318871602416,0.9921271800994873,0.12371835112571716,-0.30468761920928955,-0.34375011920928955,9.925785064697266,-0.9804694652557373,-0.22851578891277313,-0.2910158336162567
5340,-0.018371595069766045,0.00726318871602416,0.9921271800994873,0.12371835112571716,0.0,-0.7656252980232239,9.726566314697266,-0.9804694652557373,-0.22851578891277313,-0.2910158336162567
5345,-0.018371595069766045,0.00726318871602416,0.9921271800994873,0.12371835112571716,0.07812502980232239,-0.9570316076278687,9.765628814697266,-0.9804694652557373,-0.22851578891277313,-0.2910158336162567
5350,-0.018371595069766045,0.00726318871602416,0.9921271800994873,0.12371835112571716,0.07812502980232239,-0.9570316076278687,9.765628814697266,-0.8710943460464478,-0.43945345282554626,-0.18554700911045074
5357,-0.018371595069766045,0.00726318871602416,0.9921271800994873,0.12371835112571716,0.11328128725290298,-0.9960941076278687,9.886722564697266,-0.8710943460464478,-0.43945345282554626,-0.18554700911045074
5363,-0.018371595069766045,0.00726318871602416,0.9921271800994873,0.12371835112571716,-0.039062514901161194,-0.8437502980232239,10.003910064697266,-0.8710943460464478,-0.43945345282554626,-0.18554700911045074
5368,-0.018371595069766045,0.00726318871602416,0.9921271800994873,0.12371835112571716,-0.039062514901161194,-0.8437502980232239,10.003910064697266,-0.9238287806510925,-0.5058597326278687,-0.12304696440696716
5374,-0.012268074788153172,-0.022155778482556343,0.9912116527557373,0.13000497221946716,-0.039062514901161194,-0.8437502980232239,10.003910064697266,-0.9238287806510925,-0.5058597326278687,-0.12304696440696716
5382,-0.012268074788153172,-0.022155778482556343,0.9912116527557373,0.13000497221946716,-0.11328128725290298,-0.9179691076278687,9.964847564697266,-0.9238287806510925,-0.5058597326278687,-0.12304696440696716
5388,-0.012268074788153172,-0.022155778482556343,0.9912116527557373,0.13000497221946716,-0.11328128725290298,-0.9179691076278687,9.964847564697266,-0.9667975902557373,-0.3828127682209015,-0.11132820695638657
5393,-0.012268074788153172,-0.022155778482556343,0.9912116527557373,0.13000497221946716,-0.11328128725290298,-0.9179691076278687,9.964847564697266,-0.9453131556510925,-0.3457033634185791,-0.11523445695638657
5400,-0.012268074788153172,-0.022155778482556343,0.9912116527557373,0.13000497221946716,-0.11328128725290298,-0.9179691076278687,9.964847564697266,-0.9277350306510925,-0.3007814586162567,-0.10937507450580597
5407,-0.012268074788153172,-0.022155778482556343,0.9912116527557373,0.13000497221946716,0.11328128725290298,-1.4570317268371582,9.609378814697266,-0.9277350306510925,-0.3007814586162567,-0.10937507450580597
5412,-0.012268074788153172,-0.022155778482556343,0.9912116527557373,0.13000497221946716,0.11328128725290298,-1.4570317268371582,9.609378814697266,-0.8886725306510925,-0.21093764901161194,-0.09179694205522537
5421,-0.012268074788153172,-0.022155778482556343,0.9912116527557373,0.13000497221946716,0.11328128725290298,-1.4570317268371582,9.609378814697266,-0.8828131556510925,-0.19140638411045074,-0.08203130960464478
5426,-0.012268074788153172,-0.022155778482556343,0.9912116527557373,0.13000497221946716,-0.19140632450580597,-1.8789069652557373,9.26953411102295,-0.8828131556510925,-0.19140638411045074,-0.08203130960464478
5433,-0.012268074788153172,-0.022155778482556343,0.9912116527557373,0.13000497221946716,-0.34375011920928955,-2.0312507152557373,9.19922161102295,-0.8828131556510925,-0.19140638411045074,-0.08203130960464478
5440,-0.012268074788153172,-0.022155778482556343,0.9912116527557373,0.13000497221946716,-0.34375011920928955,-2.0312507152557373,9.19922161102295,-0.761719286441803,-0.13476571440696716,-0.11914070695638657
5446,-0.012268074788153172,-0.022155778482556343,0.9912116527557373,0.13000497221946716,-0.4960939288139343,-2.1054694652557373,9.04297161102295,-0.761719286441803,-0.13476571440696716,-0.11914070695638657
5451,-0.012268074788153172,-0.022155778482556343,0.9912116527557373,0.13000497221946716,-0.4609376788139343,-2.1835944652557373,8.96094036102295,-0.761719286441803,-0.13476571440696716,-0.11914070695638657
5457,-0.012268074788153172,-0.022155778482556343,0.9912116527557373,0.13000497221946716,-0.4609376788139343,-2.1835944652557373,8.96094036102295,-0.6171879172325134,-0.13867197930812836,-0.20117202401161194
5464,-0.006530766375362873,-0.06066899001598358,0.9890143871307373,0.13464364409446716,-0.4609376788139343,-2.1835944652557373,8.96094036102295,-0.6171879172325134,-0.13867197930812836,-0.20117202401161194
5470,-0.006530766375362873,-0.06066899001598358,0.9890143871307373,0.13464364409446716,-0.4609376788139343,-2.5273447036743164,9.07812786102295,-0.6171879172325134,-0.13867197930812836,-0.20117202401161194
5476,-0.006530766375362873,-0.06066899001598358,0.9890143871307373,0.13464364409446716,-0.4609376788139343,-2.5273447036743164,9.07812786102295,-0.49414098262786865,-0.17968763411045074,-0.2714845836162567
5482,-0.006530766375362873,-0.06066899001598358,0.9890143871307373,0.13464364409446716,-0.4609376788139343,-2.5273447036743164,9.07812786102295,-0.47460970282554626,-0.19335950911045074,-0.2968752086162567
5488,-0.006530766375362873,-0.06066899001598358,0.9890143871307373,0.13464364409446716,-0.4609376788139343,-2.5273447036743164,9.07812786102295,-0.46093782782554626,-0.19335950911045074,-0.3105470836162567
5494,-0.006530766375362873,-0.06066899001598358,0.9890143871307373,0.13464364409446716,-0.4609376788139343,-2.7187509536743164,9.26953411102295,-0.46093782782554626,-0.19335950911045074,-0.3105470836162567
5501,-0.006530766375362873,-0.06066899001598358,0.9890143871307373,0.13464364409446716,-0.4609376788139343,-2.7187509536743164,9.26953411102295,-0.45703157782554626,-0.23046891391277313,-0.3906252682209015
5509,-0.006530766375362873,-0.06066899001598358,0.9890143871307373,0.13464364409446716,-0.4609376788139343,-2.7187509536743164,9.26953411102295,-0.46093782782554626,-0.24023455381393433,-0.4121096730232239
5515,-0.006530766375362873,-0.06066899001598358,0.9890143871307373,0.13464364409446716,-0.42187514901161194,-2.3750009536743164,9.19531536102295,-0.46093782782554626,-0.24023455381393433,-0.4121096730232239
5521,-0.006530766375362873,-0.06066899001598358,0.9890143871307373,0.13464364409446716,-0.42187514901161194,-2.3750009536743164,9.19531536102295,-0.47070345282554626,-0.23242203891277313,-0.48437535762786865
5527,-0.006530766375362873,-0.06066899001598358,0.9890143871307373,0.13464364409446716,-0.42187514901161194,-2.3750009536743164,9.19531536102295,-0.44726595282554626,-0.22265641391277313,-0.5136722326278687
5533,-0.0008544927695766091,-0.07830816507339478,0.9860846996307373,0.14678965508937836,-0.42187514901161194,-2.3750009536743164,9.19531536102295,-0.44726595282554626,-0.22265641391277313,-0.5136722326278687
5539,-0.0008544927695766091,-0.07830816507339478,0.9860846996307373,0.14678965508937836,0.11328128725290298,-2.3750009536743164,8.81640911102295,-0.44726595282554626,-0.22265641391277313,-0.5136722326278687
5545,-0.0008544927695766091,-0.07830816507339478,0.9860846996307373,0.14678965508937836,0.30468761920928955,-2.3750009536743164,8.69531536102295,-0.44726595282554626,-0.22265641391277313,-0.5136722326278687
5553,-0.0008544927695766091,-0.07830816507339478,0.9860846996307373,0.14678965508937836,0.30468761920928955,-2.3750009536743164,8.69531536102295,-0.3535158634185791,-0.15625011920928955,-0.5644535422325134
5559,-0.0008544927695766091,-0.07830816507339478,0.9860846996307373,0.14678965508937836,0.4960939288139343,-2.5664072036743164,8.54297161102295,-0.3535158634185791,-0.15625011920928955,-0.5644535422325134
5565,-0.0008544927695766091,-0.07830816507339478,0.9860846996307373,0.14678965508937836,0.5742189288139343,-2.6054697036743164,8.53906536102295,-0.3535158634185791,-0.15625011920928955,-0.5644535422325134
5571,-0.0008544927695766091,-0.07830816507339478,0.9860846996307373,0.14678965508937836,0.5742189288139343,-2.6054697036743164,8.53906536102295,-0.3066408336162567,-0.12890633940696716,-0.5351566076278687
5577,-0.0008544927695766091,-0.07830816507339478,0.9860846996307373,0.14678965508937836,0.6523439884185791,-2.7968759536743164,8.54297161102295,-0.3066408336162567,-0.12890633940696716,-0.5351566076278687
5583,-0.0008544927695766091,-0.07830816507339478,0.9860846996307373,0.14678965508937836,0.6523439884185791,-2.7968759536743164,8.54297161102295,-0.2675783038139343,-0.03906252980232239,-0.49218785762786865
5587,-0.0008544927695766091,-0.07830816507339478,0.9860846996307373,0.14678965508937836,0.6523439884185791,-2.7968759536743164,8.54297161102295,-0.24804705381393433,0.0,-0.48437535762786865
5593,0.0027465838938951492,-0.08856207877397537,0.9827277660369873,0.16235363483428955,0.6523439884185791,-2.7968759536743164,8.54297161102295,-0.24804705381393433,0.0,-0.48437535762786865
5600,0.0026855487376451492,-0.08917243033647537,0.9824836254119873,0.16351330280303955,0.6523439884185791,-2.7968759536743164,8.54297161102295,-0.24804705381393433,0.0,-0.48437535762786865
5607,0.0026855487376451492,-0.08917243033647537,0.9824836254119873,0.16351330280303955,0.6523439884185791,-2.7968759536743164,8.54297161102295,-0.16015636920928955,0.09765631705522537,-0.48437535762786865
5614,0.0026855487376451492,-0.08917243033647537,0.9824836254119873,0.16351330280303955,0.11328128725290298,-2.4140634536743164,8.50000286102295,-0.16015636920928955,0.09765631705522537,-0.48437535762786865
5620,0.0026855487376451492,-0.08917243033647537,0.9824836254119873,0.16351330280303955,0.11328128725290298,-2.4140634536743164,8.50000286102295,-0.14257822930812836,0.16015636920928955,-0.5234378576278687
5627,0.0012207040563225746,-0.09124762564897537,0.9810187816619873,0.17102062702178955,0.11328128725290298,-2.4140634536743164,8.50000286102295,-0.14257822930812836,0.16015636920928955,-0.5234378576278687
5635,0.0012207040563225746,-0.09124762564897537,0.9810187816619873,0.17102062702178955,0.039062514901161194,-2.1445319652557373,8.19922161102295,-0.14257822930812836,0.16015636920928955,-0.5234378576278687
5641,0.0012207040563225746,-0.09124762564897537,0.9810187816619873,0.17102062702178955,0.039062514901161194,-2.1445319652557373,8.19922161102295,-0.08203130960464478,0.14062510430812836,-0.5683597922325134
5647,6.103519990574569e-05,-0.09204108268022537,0.9799201488494873,0.17675793170928955,0.039062514901161194,-2.1445319652557373,8.19922161102295,-0.08203130960464478,0.14062510430812836,-0.5683597922325134
5653,6.103519990574569e-05,-0.09204108268022537,0.9799201488494873,0.17675793170928955,0.34375011920928955,-2.2226569652557373,8.42187786102295,-0.08203130960464478,0.14062510430812836,-0.5683597922325134
5659,6.103519990574569e-05,-0.09204108268022537,0.9799201488494873,0.17675793170928955,0.34375011920928955,-2.2226569652557373,8.42187786102295,-0.007812505587935448,0.16601574420928955,-0.5703129172325134
5666,6.103519990574569e-05,-0.09204108268022537,0.9799201488494873,0.17675793170928955,0.34375011920928955,-2.2226569652557373,8.42187786102295,0.0,0.18750013411045074,-0.5585941672325134
5672,6.103519990574569e-05,-0.09204108268022537,0.9799201488494873,0.17675793170928955,0.6523439884185791,-2.2968757152557373,8.92187786102295,0.0,0.18750013411045074,-0.5585941672325134
5679,6.103519990574569e-05,-0.09204108268022537,0.9799201488494873,0.17675793170928955,0.6523439884185791,-2.2968757152557373,8.92187786102295,0.007812505587935448,0.2988283336162567,-0.48437535762786865
5685,6.103519990574569e-05,-0.09204108268022537,0.9799201488494873,0.17675793170928955,0.6523439884185791,-2.2968757152557373,8.92187786102295,-0.001953126396983862,0.3398439884185791,-0.4316409230232239
5691,-0.004089358262717724,-0.09149176627397537,0.9777228832244873,0.18884290754795074,0.6523439884185791,-2.2968757152557373,8.92187786102295,-0.001953126396983862,0.3398439884185791,-0.4316409230232239
5697,-0.004089358262717724,-0.09149176627397537,0.9777228832244873,0.18884290754795074,0.8437502980232239,-2.2226569652557373,8.96484661102295,-0.001953126396983862,0.3398439884185791,-0.4316409230232239
5703,-0.004089358262717724,-0.09149176627397537,0.9777228832244873,0.18884290754795074,0.6132814884185791,-2.0703132152557373,8.54297161102295,-0.001953126396983862,0.3398439884185791,-0.4316409230232239
5709,-0.004089358262717724,-0.09149176627397537,0.9777228832244873,0.18884290754795074,0.6132814884185791,-2.0703132152557373,8.54297161102295,-0.06640629470348358,0.47851595282554626,-0.2753908336162567
5716,-0.009338385425508022,-0.09130866080522537,0.9768683910369873,0.19305433332920074,0.6132814884185791,-2.0703132152557373,8.54297161102295,-0.06640629470348358,0.47851595282554626,-0.2753908336162567
5723,-0.009338385425508022,-0.09130866080522537,0.9768683910369873,0.19305433332920074,0.38281264901161194,-1.5312505960464478,7.394534111022949,-0.06640629470348358,0.47851595282554626,-0.2753908336162567
5729,-0.009338385425508022,-0.09130866080522537,0.9768683910369873,0.19305433332920074,0.38281264901161194,-1.5312505960464478,7.394534111022949,0.22070328891277313,0.2675783038139343,-0.17773450911045074
5735,-0.009338385425508022,-0.09130866080522537,0.9768683910369873,0.19305433332920074,0.38281264901161194,-1.5312505960464478,7.394534111022949,0.2675783038139343,0.22265641391277313,-0.13476571440696716
5742,-0.009338385425508022,-0.09130866080522537,0.9768683910369873,0.19305433332920074,0.5742189288139343,-1.3007817268371582,8.19531536102295,0.2675783038139343,0.22265641391277313,-0.13476571440696716
5747,-0.009338385425508022,-0.09130866080522537,0.9768683910369873,0.19305433332920074,0.5742189288139343,-1.3007817268371582,8.19531536102295,0.3222658634185791,0.16406261920928955,-0.05859379097819328
5753,-0.009338385425508022,-0.09130866080522537,0.9768683910369873,0.19305433332920074,0.5742189288139343,-1.3007817268371582,8.19531536102295,0.3222658634185791,0.16406261920928955,-0.011718758381903172
5761,-0.009338385425508022,-0.09130866080522537,0.9768683910369873,0.19305433332920074,0.5742189288139343,-1.3007817268371582,8.19531536102295,0.2988283336162567,0.18554700911045074,0.03125002235174179
5767,-0.009338385425508022,-0.09130866080522537,0.9768683910369873,0.19305433332920074,1.1875004768371582,-1.6093755960464478,8.96094036102295,0.2988283336162567,0.18554700911045074,0.03125002235174179
5773,-0.009338385425508022,-0.09130866080522537,0.9768683910369873,0.19305433332920074,1.2265629768371582,-1.5703130960464478,8.77734661102295,0.2988283336162567,0.18554700911045074,0.03125002235174179
5779,-0.009338385425508022,-0.09130866080522537,0.9768683910369873,0.19305433332920074,1.2265629768371582,-1.5703130960464478,8.77734661102295,0.08789068460464478,0.2500001788139343,0.2929689586162567
5785,-0.016113292425870895,-0.08288580179214478,0.9772956371307373,0.19433607161045074,1.2265629768371582,-1.5703130960464478,8.77734661102295,0.08789068460464478,0.2500001788139343,0.2929689586162567
5792,-0.016113292425870895,-0.08288580179214478,0.9772956371307373,0.19433607161045074,5.554689407348633,0.8828127980232239,17.2734432220459,0.08789068460464478,0.2500001788139343,0.2929689586162567
5797,-0.016113292425870895,-0.08288580179214478,0.9772956371307373,0.19433607161045074,5.554689407348633,0.8828127980232239,17.2734432220459,-1.0664069652557373,0.3437502384185791,1.0488288402557373
5804,-0.016113292425870895,-0.08288580179214478,0.9772956371307373,0.19433607161045074,5.554689407348633,0.8828127980232239,17.2734432220459,-1.1406258344650269,0.23242203891277313,1.1191414594650269
5811,-0.016113292425870895,-0.08288580179214478,0.9772956371307373,0.19433607161045074,5.554689407348633,0.8828127980232239,17.2734432220459,-1.2480477094650269,0.13085946440696716,1.1308602094650269
5817,-0.016113292425870895,-0.08288580179214478,0.9772956371307373,0.19433607161045074,-2.3359384536743164,0.26953133940696716,8.92578411102295,-1.2480477094650269,0.13085946440696716,1.1308602094650269
5823,-0.016113292425870895,-0.08288580179214478,0.9772956371307373,0.19433607161045074,-2.3359384536743164,0.26953133940696716,8.92578411102295,-1.1816414594650269,-0.20507827401161194,1.0546882152557373
5830,-0.016113292425870895,-0.08288580179214478,0.9772956371307373,0.19433607161045074,-2.3359384536743164,0.26953133940696716,8.92578411102295,-1.1855477094650269,-0.3066408336162567,1.0683600902557373
5836,-0.016113292425870895,-0.08288580179214478,0.9772956371307373,0.19433607161045074,-0.26953133940696716,-0.5742189288139343,9.19922161102295,-1.1855477094650269,-0.3066408336162567,1.0683600902557373
5842,-0.016113292425870895,-0.08288580179214478,0.9772956371307373,0.19433607161045074,0.4960939288139343,-1.0351566076278687,10.875003814697266,-1.1855477094650269,-0.3066408336162567,1.0683600902557373
5850,-0.016113292425870895,-0.08288580179214478,0.9772956371307373,0.19433607161045074,0.4960939288139343,-1.0351566076278687,10.875003814697266,-1.3027353286743164,-0.3359377384185791,1.1015633344650269
5856,-0.016113292425870895,-0.08288580179214478,0.9772956371307373,0.19433607161045074,0.8437502980232239,-1.4179692268371582,10.648441314697266,-1.3027353286743164,-0.3359377384185791,1.1015633344650269
5862,-0.016113292425870895,-0.08288580179214478,0.9772956371307373,0.19433607161045074,1.1484378576278687,-1.8789069652557373,9.808597564697266,-1.3027353286743164,-0.3359377384185791,1.1015633344650269
5868,-0.016113292425870895,-0.08288580179214478,0.9772956371307373,0.19433607161045074,1.1484378576278687,-1.8789069652557373,9.808597564697266,-1.3710947036743164,-0.046875033527612686,1.1445320844650269
5875,-0.016113292425870895,-0.08288580179214478,0.9772956371307373,0.19433607161045074,0.15234380960464478,-2.1445319652557373,8.88281536102295,-1.3710947036743164,-0.046875033527612686,1.1445320844650269
5882,-0.016113292425870895,-0.08288580179214478,0.9772956371307373,0.19433607161045074,-0.23046883940696716,-1.8789069652557373,9.425785064697266,-1.3710947036743164,-0.046875033527612686,1.1445320844650269
5889,-0.016113292425870895,-0.08288580179214478,0.9772956371307373,0.19433607161045074,-0.23046883940696716,-1.8789069652557373,9.425785064697266,-1.3125009536743164,-0.10742194950580597,1.0800788402557373
5895,-0.016113292425870895,-0.08288580179214478,0.9772956371307373,0.19433607161045074,-0.9960941076278687,-1.9531257152557373,9.652347564697266,-1.3125009536743164,-0.10742194950580597,1.0800788402557373
5902,-0.016113292425870895,-0.08288580179214478,0.9772956371307373,0.19433607161045074,-0.7265627384185791,-1.7226568460464478,10.148441314697266,-1.3125009536743164,-0.10742194950580597,1.0800788402557373
5908,-0.016113292425870895,-0.08288580179214478,0.9772956371307373,0.19433607161045074,-0.7265627384185791,-1.7226568460464478,10.148441314697266,-1.0878914594650269,-0.20703139901161194,0.9023444056510925
5914,-0.016113292425870895,-0.08288580179214478,0.9772956371307373,0.19433607161045074,0.039062514901161194,-1.9531257152557373,9.613285064697266,-1.0878914594650269,-0.20703139901161194,0.9023444056510925
5921,-0.016113292425870895,-0.08288580179214478,0.9772956371307373,0.19433607161045074,0.039062514901161194,-1.8007818460464478,9.343753814697266,-1.0878914594650269,-0.20703139901161194,0.9023444056510925
5927,-0.016113292425870895,-0.08288580179214478,0.9772956371307373,0.19433607161045074,0.039062514901161194,-1.8007818460464478,9.343753814697266,-0.724609911441803,-0.3886721432209015,0.8535162210464478
5934,-0.016113292425870895,-0.08288580179214478,0.9772956371307373,0.19433607161045074,-0.039062514901161194,-1.8789069652557373,9.08203411102295,-0.724609911441803,-0.3886721432209015,0.8535162210464478
5941,-0.016113292425870895,-0.08288580179214478,0.9772956371307373,0.19433607161045074,-0.19140632450580597,-1.9140632152557373,8.96484661102295,-0.724609911441803,-0.3886721432209015,0.8535162210464478
5946,-0.016113292425870895,-0.08288580179214478,0.9772956371307373,0.19433607161045074,-0.19140632450580597,-1.9140632152557373,8.96484661102295,-0.2675783038139343,-0.48437535762786865,0.738281786441803
5952,-0.016113292425870895,-0.08288580179214478,0.9772956371307373,0.19433607161045074,-0.19140632450580597,-1.9140632152557373,8.96484661102295,-0.11132820695638657,-0.5039066076278687,0.6816411018371582
5958,-0.016113292425870895,-0.08288580179214478,0.9772956371307373,0.19433607161045074,-0.19140632450580597,-1.9140632152557373,8.96484661102295,0.023437516763806343,-0.5351566076278687,0.6308598518371582
5964,-0.016113292425870895,-0.08288580179214478,0.9772956371307373,0.19433607161045074,-0.19140632450580597,-1.9140632152557373,8.96484661102295,0.3066408336162567,-0.5625004172325134,0.5097659826278687
5970,-0.016113292425870895,-0.08288580179214478,0.9772956371307373,0.19433607161045074,-0.8437502980232239,-1.7617193460464478,9.30469036102295,0.3066408336162567,-0.5625004172325134,0.5097659826278687
5978,-0.016113292425870895,-0.08288580179214478,0.9772956371307373,0.19433607161045074,-0.8437502980232239,-1.7617193460464478,9.30469036102295,0.5488285422325134,-0.5585941672325134,0.4238284230232239
5984,-0.016113292425870895,-0.08288580179214478,0.9772956371307373,0.19433607161045074,-0.07812502980232239,-2.1054694652557373,8.77734661102295,0.5488285422325134,-0.5585941672325134,0.4238284230232239
5990,-0.016113292425870895,-0.08288580179214478,0.9772956371307373,0.19433607161045074,-0.15234380960464478,-1.8398444652557373,9.12109661102295,0.5488285422325134,-0.5585941672325134,0.4238284230232239
5997,-0.016113292425870895,-0.08288580179214478,0.9772956371307373,0.19433607161045074,-0.15234380960464478,-1.8398444652557373,9.12109661102295,1.0605475902557373,-0.5898441672325134,0.20898452401161194
6003,-0.016113292425870895,-0.08288580179214478,0.9772956371307373,0.19433607161045074,0.34375011920928955,-2.5273447036743164,9.500003814697266,1.0605475902557373,-0.5898441672325134,0.20898452401161194
6009,-0.016113292425870895,-0.08288580179214478,0.9772956371307373,0.19433607161045074,0.34375011920928955,-2.5273447036743164,9.500003814697266,1.460938572883606,-0.46484407782554626,0.16601574420928955
6016,-0.016113292425870895,-0.08288580179214478,0.9772956371307373,0.19433607161045074,0.34375011920928955,-2.5273447036743164,9.500003814697266,1.6171886920928955,-0.4257815480232239,0.12500008940696716
6022,-0.016113292425870895,-0.08288580179214478,0.9772956371307373,0.19433607161045074,0.34375011920928955,-2.5273447036743164,9.500003814697266,1.773438811302185,-0.3847658932209015,0.08789068460464478
6028,-0.016113292425870895,-0.08288580179214478,0.9772956371307373,0.19433607161045074,-0.6914064884185791,-2.1054694652557373,7.933596611022949,1.773438811302185,-0.3847658932209015,0.08789068460464478
6034,-0.016113292425870895,-0.08288580179214478,0.9772956371307373,0.19433607161045074,-0.6914064884185791,-2.1054694652557373,7.933596611022949,2.2656266689300537,-0.3144533634185791,-0.06250004470348358
6040,-0.016113292425870895,-0.08288580179214478,0.9772956371307373,0.19433607161045074,-0.6523439884185791,-1.3007817268371582,8.23437786102295,2.2656266689300537,-0.3144533634185791,-0.06250004470348358
6045,-0.016113292425870895,-0.08288580179214478,0.9772956371307373,0.19433607161045074,-0.6523439884185791,-1.3007817268371582,8.23437786102295,2.525392532348633,-0.20703139901161194,-0.14843760430812836
6051,0.0007934576133266091,-0.11328133195638657,0.9891974925994873,0.09320075064897537,-0.6523439884185791,-1.3007817268371582,8.23437786102295,2.525392532348633,-0.20703139901161194,-0.14843760430812836
6059,0.0007934576133266091,-0.11328133195638657,0.9891974925994873,0.09320075064897537,0.0,-0.4960939288139343,9.347660064697266,2.525392532348633,-0.20703139901161194,-0.14843760430812836
6065,0.0007934576133266091,-0.11328133195638657,0.9891974925994873,0.09320075064897537,0.0,-0.4960939288139343,9.347660064697266,2.910158395767212,0.14843760430812836,-0.3359377384185791
6070,0.0007934576133266091,-0.11328133195638657,0.9891974925994873,0.09320075064897537,0.0,-0.4960939288139343,9.347660064697266,3.000002145767212,0.2539064288139343,-0.3925783932209015
6075,0.0031738304533064365,-0.07769780606031418,0.9922492504119873,0.09698493033647537,0.0,-0.4960939288139343,9.347660064697266,3.000002145767212,0.2539064288139343,-0.3925783932209015
6081,0.0031738304533064365,-0.07769780606031418,0.9922492504119873,0.09698493033647537,0.0,-0.4960939288139343,9.347660064697266,3.121095895767212,0.49023473262786865,-0.44335970282554626
6088,0.0031738304533064365,-0.07769780606031418,0.9922492504119873,0.09698493033647537,0.0,-0.4960939288139343,9.347660064697266,3.167971134185791,0.6230472922325134,-0.44726595282554626
6095,0.0031738304533064365,-0.07769780606031418,0.9922492504119873,0.09698493033647537,0.0,0.8437502980232239,9.921878814697266,3.167971134185791,0.6230472922325134,-0.44726595282554626
6102,-0.001037598354741931,-0.03784182295203209,0.9939582347869873,0.10302741825580597,0.0,0.8437502980232239,9.921878814697266,3.167971134185791,0.6230472922325134,-0.44726595282554626
6108,-0.001037598354741931,-0.03784182295203209,0.9939582347869873,0.10302741825580597,-0.15234380960464478,1.0351566076278687,10.191410064697266,3.167971134185791,0.6230472922325134,-0.44726595282554626
6114,-0.001037598354741931,-0.03784182295203209,0.9939582347869873,0.10302741825580597,-0.8437502980232239,0.9960941076278687,8.96484661102295,3.167971134185791,0.6230472922325134,-0.44726595282554626
6120,-0.001037598354741931,-0.03784182295203209,0.9939582347869873,0.10302741825580597,-0.8437502980232239,0.9960941076278687,8.96484661102295,3.144533395767212,1.1250008344650269,-0.5371097326278687
6127,-0.001037598354741931,-0.03784182295203209,0.9939582347869873,0.10302741825580597,-0.7265627384185791,1.3007817268371582,9.30859661102295,3.144533395767212,1.1250008344650269,-0.5371097326278687
6133,-0.001037598354741931,-0.03784182295203209,0.9939582347869873,0.10302741825580597,-0.7265627384185791,1.3007817268371582,9.30859661102295,2.919924020767212,0.8535162210464478,-0.5449222922325134
6138,-0.001037598354741931,-0.03784182295203209,0.9939582347869873,0.10302741825580597,-0.7265627384185791,1.3007817268371582,9.30859661102295,2.812501907348633,0.767578661441803,-0.5273441076278687
6146,-0.001037598354741931,-0.03784182295203209,0.9939582347869873,0.10302741825580597,-0.7265627384185791,1.3007817268371582,9.30859661102295,2.667970657348633,0.710938036441803,-0.5117191076278687
6152,-0.001037598354741931,-0.03784182295203209,0.9939582347869873,0.10302741825580597,-0.8046877980232239,1.6484380960464478,10.265628814697266,2.667970657348633,0.710938036441803,-0.5117191076278687
6157,-0.001037598354741931,-0.03784182295203209,0.9939582347869873,0.10302741825580597,-0.8046877980232239,1.6484380960464478,10.265628814697266,2.4746110439300537,0.3476564884185791,-0.5371097326278687
6162,-0.001037598354741931,-0.03784182295203209,0.9939582347869873,0.10302741825580597,-0.8046877980232239,1.6484380960464478,10.265628814697266,2.4238297939300537,0.17578136920928955,-0.5156253576278687
6168,-0.001037598354741931,-0.03784182295203209,0.9939582347869873,0.10302741825580597,-0.38281264901161194,1.3789067268371582,10.148441314697266,2.4238297939300537,0.17578136920928955,-0.5156253576278687
6175,-0.001037598354741931,-0.03784182295203209,0.9939582347869873,0.10302741825580597,-0.38281264901161194,1.3789067268371582,10.148441314697266,2.0761733055114746,0.04101565480232239,-0.45507845282554626
6181,-0.001037598354741931,-0.03784182295203209,0.9939582347869873,0.10302741825580597,0.23046883940696716,1.7617193460464478,10.878910064697266,2.0761733055114746,0.04101565480232239,-0.45507845282554626
6188,-0.001037598354741931,-0.03784182295203209,0.9939582347869873,0.10302741825580597,0.23046883940696716,1.7617193460464478,10.878910064697266,1.560547947883606,0.009765632450580597,-0.3476564884185791
6194,-0.001037598354741931,-0.03784182295203209,0.9939582347869873,0.10302741825580597,0.23046883940696716,1.7617193460464478,10.878910064697266,1.3925790786743164,0.007812505587935448,-0.3144533634185791
6200,-0.001037598354741931,-0.03784182295203209,0.9939582347869873,0.10302741825580597,0.23046883940696716,1.7617193460464478,10.878910064697266,1.2167977094650269,0.023437516763806343,-0.2773439586162567
6206,-0.001037598354741931,-0.03784182295203209,0.9939582347869873,0.10302741825580597,0.26953133940696716,1.8007818460464478,10.652347564697266,1.2167977094650269,0.023437516763806343,-0.2773439586162567
6211,-0.001037598354741931,-0.03784182295203209,0.9939582347869873,0.10302741825580597,0.26953133940696716,1.8007818460464478,10.652347564697266,0.6875004768371582,0.12695321440696716,-0.15234385430812836
6217,-0.001037598354741931,-0.03784182295203209,0.9939582347869873,0.10302741825580597,0.38281264901161194,1.7226568460464478,10.765628814697266,0.6875004768371582,0.12695321440696716,-0.15234385430812836
6223,-0.001037598354741931,-0.03784182295203209,0.9939582347869873,0.10302741825580597,0.38281264901161194,1.7226568460464478,10.765628814697266,0.3437502384185791,0.14648447930812836,-0.07031255215406418
6230,-0.015441905707120895,0.10083015263080597,0.9861457347869873,0.13067635893821716,0.38281264901161194,1.7226568460464478,10.765628814697266,0.3437502384185791,0.14648447930812836,-0.07031255215406418
6237,-0.015441905707120895,0.10083015263080597,0.9861457347869873,0.13067635893821716,0.30468761920928955,1.5703130960464478,10.496097564697266,0.3437502384185791,0.14648447930812836,-0.07031255215406418
6242,-0.015441905707120895,0.10083015263080597,0.9861457347869873,0.13067635893821716,0.30468761920928955,1.5703130960464478,10.496097564697266,-0.3398439884185791,0.005859379190951586,0.10742194950580597
6248,-0.015441905707120895,0.10083015263080597,0.9861457347869873,0.13067635893821716,0.30468761920928955,1.5703130960464478,10.496097564697266,-0.5058597326278687,-0.04296877980232239,0.14843760430812836
6255,-0.016052257269620895,0.09783942252397537,0.9866340160369873,0.12951669096946716,0.30468761920928955,1.5703130960464478,10.496097564697266,-0.5058597326278687,-0.04296877980232239,0.14843760430812836
