Timestamp,QI,QJ,QK,QR,AX,AY,AZ,GX,GY,GZ
2578,0.0,0.0,0.0,0.0,-0.08593752980232239,-0.5468751788139343,9.734378814697266,0.0,0.0,0.0
2584,0.0,0.0,0.0,0.0,-0.10546878725290298,-0.5156251788139343,9.707035064697266,0.0,0.0,0.0
2590,0.0,0.0,0.0,0.0,-0.08593752980232239,-0.5664064288139343,9.707035064697266,0.0,0.0,0.0
2597,0.0,0.0,0.0,0.0,-0.08593752980232239,-0.5351564288139343,9.722660064697266,0.0,0.0,0.0
2604,0.0,0.0,0.0,0.0,-0.09765628725290298,-0.5273439288139343,9.671878814697266,0.0,0.0,0.0
2611,0.0,0.0,0.0,0.0,-0.06640627235174179,-0.5664064288139343,9.644535064697266,0.0,0.0,0.0
2617,0.0,0.0,0.0,0.0,-0.07812502980232239,-0.5351564288139343,9.703128814697266,0.0,0.0,0.0
2624,0.0,0.0,0.0,0.0,-0.06640627235174179,-0.5273439288139343,9.722660064697266,0.0,0.0,0.0
2643,0.0,0.0,0.0,0.0,-0.06640627235174179,-0.5273439288139343,9.722660064697266,0.0,0.005859379190951586,0.007812505587935448
2667,0.0,0.0,0.0,0.0,-0.07812502980232239,-0.5156251788139343,9.710941314697266,0.0,0.005859379190951586,0.007812505587935448
2679,0.0,0.0,0.0,0.0,-0.06640627235174179,-0.5351564288139343,9.714847564697266,0.0,0.005859379190951586,0.007812505587935448
2697,0.0,0.0,0.0,0.0,-0.06640627235174179,-0.5351564288139343,9.714847564697266,0.007812505587935448,0.0,-0.001953126396983862
2713,0.0,0.0,0.0,0.0,-0.08593752980232239,-0.5351564288139343,9.734378814697266,0.007812505587935448,0.0,-0.001953126396983862
2734,0.0,0.0,0.0,0.0,-0.08593752980232239,-0.5351564288139343,9.734378814697266,-0.015625011175870895,0.007812505587935448,-0.003906252793967724
2771,0.0,0.0,0.0,0.0,-0.08593752980232239,-0.5351564288139343,9.734378814697266,-0.011718758381903172,-0.001953126396983862,0.011718758381903172
2787,0.0,0.0,0.0,0.0,-0.08593752980232239,-0.5546876788139343,9.703128814697266,-0.011718758381903172,-0.001953126396983862,0.011718758381903172
2805,0.0,0.0,0.0,0.0,-0.08593752980232239,-0.5546876788139343,9.703128814697266,-0.007812505587935448,0.015625011175870895,0.005859379190951586
2821,0.0,0.0,0.0,0.0,-0.08593752980232239,-0.5546876788139343,9.703128814697266,-0.013671884313225746,0.011718758381903172,-0.005859379190951586
2856,0.0,0.0,0.0,0.0,-0.08593752980232239,-0.5546876788139343,9.703128814697266,-0.007812505587935448,0.007812505587935448,-0.001953126396983862
2872,0.0,0.0,0.0,0.0,-0.08593752980232239,-0.5546876788139343,9.703128814697266,0.0,-0.013671884313225746,0.001953126396983862
2889,-0.02783205173909664,0.004699710290879011,0.00030517601408064365,0.9995734691619873,-0.08593752980232239,-0.5546876788139343,9.703128814697266,0.0,-0.013671884313225746,0.001953126396983862
2906,-0.02783205173909664,0.004699710290879011,0.00030517601408064365,0.9995734691619873,-0.09765628725290298,-0.5273439288139343,9.644535064697266,0.0,-0.013671884313225746,0.001953126396983862
2939,-0.02783205173909664,0.004699710290879011,0.00030517601408064365,0.9995734691619873,-0.09765628725290298,-0.5273439288139343,9.644535064697266,-0.001953126396983862,-0.003906252793967724,0.001953126396983862
2956,-0.02813722752034664,0.004760745447129011,0.0003662111994344741,0.9995734691619873,-0.09765628725290298,-0.5273439288139343,9.644535064697266,-0.001953126396983862,-0.003906252793967724,0.001953126396983862
2972,-0.02813722752034664,0.004760745447129011,0.0003662111994344741,0.9995734691619873,-0.09765628725290298,-0.5273439288139343,9.644535064697266,0.011718758381903172,0.007812505587935448,0.005859379190951586
2989,-0.02813722752034664,0.004760745447129011,0.0003662111994344741,0.9995734691619873,-0.08593752980232239,-0.5468751788139343,9.687503814697266,0.011718758381903172,0.007812505587935448,0.005859379190951586
3006,-0.02813722752034664,0.004760745447129011,0.0003662111994344741,0.9995734691619873,-0.08593752980232239,-0.5468751788139343,9.687503814697266,0.0,0.0,0.007812505587935448
3044,-0.02813722752034664,0.004760745447129011,0.0003662111994344741,0.9995734691619873,-0.08593752980232239,-0.5468751788139343,9.687503814697266,-0.013671884313225746,0.013671884313225746,-0.017578138038516045
3057,-0.02813722752034664,0.004760745447129011,0.0003662111994344741,0.9995734691619873,-0.06640627235174179,-0.5273439288139343,9.734378814697266,-0.013671884313225746,0.013671884313225746,-0.017578138038516045
3077,-0.02813722752034664,0.004760745447129011,0.0003662111994344741,0.9995734691619873,-0.06640627235174179,-0.5273439288139343,9.734378814697266,-0.003906252793967724,-0.003906252793967724,0.009765632450580597
3092,-0.02813722752034664,0.004760745447129011,0.0003662111994344741,0.9995734691619873,-0.06640627235174179,-0.5273439288139343,9.734378814697266,-0.013671884313225746,-0.001953126396983862,-0.003906252793967724
3115,-0.02813722752034664,0.004760745447129011,0.0003662111994344741,0.9995734691619873,-0.06640627235174179,-0.5273439288139343,9.734378814697266,-0.005859379190951586,0.011718758381903172,-0.005859379190951586
3130,-0.02813722752034664,0.004760745447129011,0.0003662111994344741,0.9995734691619873,-0.07812502980232239,-0.5546876788139343,9.734378814697266,-0.005859379190951586,0.011718758381903172,-0.005859379190951586
3152,-0.02813722752034664,0.004760745447129011,0.0003662111994344741,0.9995734691619873,-0.09765628725290298,-0.5742189288139343,9.683597564697266,-0.005859379190951586,0.011718758381903172,-0.005859379190951586
3187,-0.02813722752034664,0.004760745447129011,0.0003662111994344741,0.9995734691619873,-0.09765628725290298,-0.5742189288139343,9.683597564697266,0.005859379190951586,-0.013671884313225746,-0.003906252793967724
3206,-0.02813722752034664,0.004760745447129011,0.0003662111994344741,0.9995734691619873,-0.09765628725290298,-0.5742189288139343,9.683597564697266,-0.011718758381903172,0.017578138038516045,0.001953126396983862
3228,-0.02813722752034664,0.004760745447129011,0.0003662111994344741,0.9995734691619873,-0.09765628725290298,-0.5664064288139343,9.710941314697266,-0.011718758381903172,0.017578138038516045,0.001953126396983862
3244,-0.02813722752034664,0.004760745447129011,0.0003662111994344741,0.9995734691619873,-0.07812502980232239,-0.5468751788139343,9.714847564697266,-0.011718758381903172,0.017578138038516045,0.001953126396983862
3262,-0.02813722752034664,0.004760745447129011,0.0003662111994344741,0.9995734691619873,-0.06640627235174179,-0.5859377384185791,9.675785064697266,-0.011718758381903172,0.017578138038516045,0.001953126396983862
3278,-0.02813722752034664,0.004760745447129011,0.0003662111994344741,0.9995734691619873,-0.06640627235174179,-0.5468751788139343,9.738285064697266,-0.011718758381903172,0.017578138038516045,0.001953126396983862
3297,-0.02874757908284664,0.0048828162252902985,0.0005493168137036264,0.9995734691619873,-0.06640627235174179,-0.5468751788139343,9.738285064697266,-0.011718758381903172,0.017578138038516045,0.001953126396983862
3312,-0.02874757908284664,0.0048828162252902985,0.0005493168137036264,0.9995734691619873,-0.07812502980232239,-0.5078126788139343,9.675785064697266,-0.011718758381903172,0.017578138038516045,0.001953126396983862
3331,-0.02874757908284664,0.0048828162252902985,0.0005493168137036264,0.9995734691619873,-0.07812502980232239,-0.5078126788139343,9.675785064697266,-0.003906252793967724,0.005859379190951586,-0.009765632450580597
3346,-0.02874757908284664,0.0048828162252902985,0.0005493168137036264,0.9995734691619873,-0.09765628725290298,-0.5664064288139343,9.710941314697266,-0.003906252793967724,0.005859379190951586,-0.009765632450580597
3366,-0.02874757908284664,0.0048828162252902985,0.0005493168137036264,0.9995734691619873,-0.09765628725290298,-0.5664064288139343,9.710941314697266,0.001953126396983862,0.005859379190951586,0.011718758381903172
3383,-0.02874757908284664,0.0048828162252902985,0.0005493168137036264,0.9995734691619873,-0.09765628725290298,-0.5664064288139343,9.710941314697266,-0.003906252793967724,-0.005859379190951586,0.0
3401,-0.02874757908284664,0.0048828162252902985,0.0005493168137036264,0.9995734691619873,-0.10546878725290298,-0.5351564288139343,9.691410064697266,-0.003906252793967724,-0.005859379190951586,0.0
3417,-0.02874757908284664,0.0048828162252902985,0.0005493168137036264,0.9995734691619873,-0.09765628725290298,-0.5273439288139343,9.714847564697266,-0.003906252793967724,-0.005859379190951586,0.0
3435,-0.02893068455159664,0.0048828162252902985,0.0004882815992459655,0.9995734691619873,-0.09765628725290298,-0.5273439288139343,9.714847564697266,-0.003906252793967724,-0.005859379190951586,0.0
3470,-0.02893068455159664,0.0048828162252902985,0.0004882815992459655,0.9995734691619873,-0.09765628725290298,-0.5273439288139343,9.714847564697266,-0.019531264901161194,0.003906252793967724,-0.001953126396983862
3488,-0.02893068455159664,0.0048828162252902985,0.0004882815992459655,0.9995734691619873,-0.09765628725290298,-0.5273439288139343,9.714847564697266,0.003906252793967724,0.001953126396983862,0.019531264901161194
3505,-0.02893068455159664,0.0048828162252902985,0.0004882815992459655,0.9995734691619873,-0.08593752980232239,-0.5351564288139343,9.734378814697266,0.003906252793967724,0.001953126396983862,0.019531264901161194
3539,-0.02893068455159664,0.0048828162252902985,0.0004882815992459655,0.9995734691619873,-0.08593752980232239,-0.5351564288139343,9.734378814697266,0.001953126396983862,-0.003906252793967724,-0.001953126396983862
3555,-0.02893068455159664,0.0048828162252902985,0.0004882815992459655,0.9995734691619873,-0.08593752980232239,-0.5351564288139343,9.734378814697266,-0.001953126396983862,-0.009765632450580597,-0.005859379190951586
3573,-0.02886964939534664,0.004760745447129011,0.00091552798403427,0.9995734691619873,-0.08593752980232239,-0.5351564288139343,9.734378814697266,-0.001953126396983862,-0.009765632450580597,-0.005859379190951586
3592,-0.02886964939534664,0.004760745447129011,0.00091552798403427,0.9995734691619873,-0.07812502980232239,-0.5546876788139343,9.707035064697266,-0.001953126396983862,-0.009765632450580597,-0.005859379190951586
3614,-0.02886964939534664,0.004760745447129011,0.00091552798403427,0.9995734691619873,-0.08593752980232239,-0.5351564288139343,9.710941314697266,-0.001953126396983862,-0.009765632450580597,-0.005859379190951586
3630,-0.02886964939534664,0.004760745447129011,0.00091552798403427,0.9995734691619873,-0.11328128725290298,-0.5156251788139343,9.687503814697266,-0.001953126396983862,-0.009765632450580597,-0.005859379190951586
3652,-0.02886964939534664,0.004760745447129011,0.00091552798403427,0.9995734691619873,-0.07812502980232239,-0.5351564288139343,9.671878814697266,-0.001953126396983862,-0.009765632450580597,-0.005859379190951586
3672,-0.02886964939534664,0.004760745447129011,0.00091552798403427,0.9995734691619873,-0.08593752980232239,-0.5273439288139343,9.730472564697266,-0.001953126396983862,-0.009765632450580597,-0.005859379190951586
3694,-0.02886964939534664,0.004760745447129011,0.00091552798403427,0.9995734691619873,-0.05859377235174179,-0.5078126788139343,9.667972564697266,-0.001953126396983862,-0.009765632450580597,-0.005859379190951586
3709,-0.02886964939534664,0.004760745447129011,0.00091552798403427,0.9995734691619873,-0.046875014901161194,-0.5546876788139343,9.722660064697266,-0.001953126396983862,-0.009765632450580597,-0.005859379190951586
3732,-0.02886964939534664,0.004760745447129011,0.00091552798403427,0.9995734691619873,-0.08593752980232239,-0.5156251788139343,9.691410064697266,-0.001953126396983862,-0.009765632450580597,-0.005859379190951586
3750,-0.02886964939534664,0.004760745447129011,0.00091552798403427,0.9995734691619873,-0.08593752980232239,-0.5156251788139343,9.691410064697266,-0.003906252793967724,-0.011718758381903172,0.023437516763806343
3773,-0.02886964939534664,0.004760745447129011,0.00091552798403427,0.9995734691619873,-0.05859377235174179,-0.5351564288139343,9.664066314697266,-0.003906252793967724,-0.011718758381903172,0.023437516763806343
3788,-0.02886964939534664,0.004760745447129011,0.00091552798403427,0.9995734691619873,-0.09765628725290298,-0.5351564288139343,9.707035064697266,-0.003906252793967724,-0.011718758381903172,0.023437516763806343
3811,-0.02886964939534664,0.004760745447129011,0.00091552798403427,0.9995734691619873,-0.07812502980232239,-0.5351564288139343,9.714847564697266,-0.003906252793967724,-0.011718758381903172,0.023437516763806343
3847,-0.02886964939534664,0.004760745447129011,0.00091552798403427,0.9995734691619873,-0.07812502980232239,-0.5351564288139343,9.714847564697266,0.001953126396983862,-0.013671884313225746,0.017578138038516045
3863,-0.02886964939534664,0.004760745447129011,0.00091552798403427,0.9995734691619873,-0.06640627235174179,-0.5156251788139343,9.722660064697266,0.001953126396983862,-0.013671884313225746,0.017578138038516045
3886,-0.02886964939534664,0.004760745447129011,0.00091552798403427,0.9995734691619873,-0.13281254470348358,-0.5351564288139343,9.730472564697266,0.001953126396983862,-0.013671884313225746,0.017578138038516045
3919,-0.02886964939534664,0.004760745447129011,0.00091552798403427,0.9995734691619873,-0.13281254470348358,-0.5351564288139343,9.730472564697266,-0.005859379190951586,0.003906252793967724,0.005859379190951586
3939,-0.02886964939534664,0.004760745447129011,0.00091552798403427,0.9995734691619873,-0.13281254470348358,-0.5351564288139343,9.730472564697266,-0.003906252793967724,0.0,0.005859379190951586
3961,-0.02886964939534664,0.004760745447129011,0.00091552798403427,0.9995734691619873,-0.07812502980232239,-0.5273439288139343,9.710941314697266,-0.003906252793967724,0.0,0.005859379190951586
3977,-0.02886964939534664,0.004760745447129011,0.00091552798403427,0.9995734691619873,-0.07812502980232239,-0.5351564288139343,9.714847564697266,-0.003906252793967724,0.0,0.005859379190951586
3999,-0.02886964939534664,0.004760745447129011,0.00091552798403427,0.9995734691619873,-0.07812502980232239,-0.5546876788139343,9.710941314697266,-0.003906252793967724,0.0,0.005859379190951586
4034,-0.02886964939534664,0.004760745447129011,0.00091552798403427,0.9995734691619873,-0.07812502980232239,-0.5546876788139343,9.710941314697266,0.001953126396983862,-0.001953126396983862,0.011718758381903172
4052,-0.02886964939534664,0.004760745447129011,0.00091552798403427,0.9995734691619873,-0.07812502980232239,-0.5546876788139343,9.710941314697266,0.011718758381903172,-0.013671884313225746,0.021484389901161194
4075,-0.02886964939534664,0.004760745447129011,0.00091552798403427,0.9995734691619873,-0.08593752980232239,-0.5351564288139343,9.710941314697266,0.011718758381903172,-0.013671884313225746,0.021484389901161194
4090,-0.02886964939534664,0.004760745447129011,0.00091552798403427,0.9995734691619873,-0.07812502980232239,-0.5468751788139343,9.691410064697266,0.011718758381903172,-0.013671884313225746,0.021484389901161194
4113,-0.02886964939534664,0.004760745447129011,0.00091552798403427,0.9995734691619873,-0.07812502980232239,-0.5273439288139343,9.687503814697266,0.011718758381903172,-0.013671884313225746,0.021484389901161194
4148,-0.02886964939534664,0.004760745447129011,0.00091552798403427,0.9995734691619873,-0.07812502980232239,-0.5273439288139343,9.687503814697266,-0.009765632450580597,0.0,0.0
4166,-0.02886964939534664,0.004760745447129011,0.00091552798403427,0.9995734691619873,-0.07812502980232239,-0.5273439288139343,9.687503814697266,-0.021484389901161194,0.007812505587935448,-0.013671884313225746
4189,-0.02886964939534664,0.004760745447129011,0.00091552798403427,0.9995734691619873,-0.05859377235174179,-0.5273439288139343,9.675785064697266,-0.021484389901161194,0.007812505587935448,-0.013671884313225746
4204,-0.02886964939534664,0.004760745447129011,0.00091552798403427,0.9995734691619873,-0.10546878725290298,-0.5468751788139343,9.714847564697266,-0.021484389901161194,0.007812505587935448,-0.013671884313225746
4227,-0.02886964939534664,0.004760745447129011,0.00091552798403427,0.9995734691619873,-0.06640627235174179,-0.5273439288139343,9.679691314697266,-0.021484389901161194,0.007812505587935448,-0.013671884313225746
4262,-0.02886964939534664,0.004760745447129011,0.00091552798403427,0.9995734691619873,-0.06640627235174179,-0.5273439288139343,9.679691314697266,-0.003906252793967724,-0.003906252793967724,0.001953126396983862
4278,-0.02941896580159664,0.0054931677877902985,0.0010986336274072528,0.9995734691619873,-0.06640627235174179,-0.5273439288139343,9.679691314697266,-0.003906252793967724,-0.003906252793967724,0.001953126396983862
4296,-0.02941896580159664,0.0054931677877902985,0.0010986336274072528,0.9995734691619873,-0.06640627235174179,-0.5273439288139343,9.710941314697266,-0.003906252793967724,-0.003906252793967724,0.001953126396983862
4331,-0.02941896580159664,0.0054931677877902985,0.0010986336274072528,0.9995734691619873,-0.06640627235174179,-0.5273439288139343,9.710941314697266,-0.003906252793967724,-0.003906252793967724,0.013671884313225746
4366,-0.02941896580159664,0.0054931677877902985,0.0010986336274072528,0.9995734691619873,-0.06640627235174179,-0.5273439288139343,9.710941314697266,0.0,-0.001953126396983862,-0.009765632450580597
4384,-0.02941896580159664,0.0054931677877902985,0.0010986336274072528,0.9995734691619873,-0.06640627235174179,-0.5273439288139343,9.710941314697266,0.007812505587935448,-0.005859379190951586,0.005859379190951586
4407,-0.02941896580159664,0.0054931677877902985,0.0010986336274072528,0.9995734691619873,-0.06640627235174179,-0.5546876788139343,9.726566314697266,0.007812505587935448,-0.005859379190951586,0.005859379190951586
4422,-0.02941896580159664,0.0054931677877902985,0.0010986336274072528,0.9995734691619873,-0.09765628725290298,-0.5937502384185791,9.707035064697266,0.007812505587935448,-0.005859379190951586,0.005859379190951586
4445,-0.02941896580159664,0.0054931677877902985,0.0010986336274072528,0.9995734691619873,-0.09765628725290298,-0.5664064288139343,9.710941314697266,0.007812505587935448,-0.005859379190951586,0.005859379190951586
4463,-0.02941896580159664,0.0054931677877902985,0.0010986336274072528,0.9995734691619873,-0.09765628725290298,-0.5664064288139343,9.710941314697266,0.009765632450580597,0.003906252793967724,0.027343768626451492
4486,-0.02941896580159664,0.0054931677877902985,0.0010986336274072528,0.9995734691619873,-0.07812502980232239,-0.5742189288139343,9.726566314697266,0.009765632450580597,0.003906252793967724,0.027343768626451492
4501,-0.02941896580159664,0.0054931677877902985,0.0010986336274072528,0.9995734691619873,-0.06640627235174179,-0.5546876788139343,9.710941314697266,0.009765632450580597,0.003906252793967724,0.027343768626451492
4524,-0.02941896580159664,0.0054931677877902985,0.0010986336274072528,0.9995734691619873,-0.08593752980232239,-0.5937502384185791,9.750003814697266,0.009765632450580597,0.003906252793967724,0.027343768626451492
4559,-0.02941896580159664,0.0054931677877902985,0.0010986336274072528,0.9995734691619873,-0.08593752980232239,-0.5937502384185791,9.750003814697266,-0.003906252793967724,-0.001953126396983862,0.009765632450580597
4576,-0.02941896580159664,0.0054931677877902985,0.0010986336274072528,0.9995734691619873,-0.07812502980232239,-0.5468751788139343,9.714847564697266,-0.003906252793967724,-0.001953126396983862,0.009765632450580597
4594,-0.02941896580159664,0.0054931677877902985,0.0010986336274072528,0.9995734691619873,-0.08593752980232239,-0.5468751788139343,9.722660064697266,-0.003906252793967724,-0.001953126396983862,0.009765632450580597
4610,-0.02941896580159664,0.0054931677877902985,0.0010986336274072528,0.9995734691619873,-0.09765628725290298,-0.5546876788139343,9.714847564697266,-0.003906252793967724,-0.001953126396983862,0.009765632450580597
4628,-0.02941896580159664,0.0054931677877902985,0.0010986336274072528,0.9995734691619873,-0.08593752980232239,-0.5273439288139343,9.718753814697266,-0.003906252793967724,-0.001953126396983862,0.009765632450580597
4643,-0.02941896580159664,0.0054931677877902985,0.0010986336274072528,0.9995734691619873,-0.06640627235174179,-0.5742189288139343,9.707035064697266,-0.003906252793967724,-0.001953126396983862,0.009765632450580597
4662,-0.02911379002034664,0.0052490271627902985,0.0014038096414878964,0.9995734691619873,-0.06640627235174179,-0.5742189288139343,9.707035064697266,-0.003906252793967724,-0.001953126396983862,0.009765632450580597
4677,-0.02911379002034664,0.0052490271627902985,0.0014648447977378964,0.9995734691619873,-0.06640627235174179,-0.5742189288139343,9.707035064697266,-0.003906252793967724,-0.001953126396983862,0.009765632450580597
4698,-0.02911379002034664,0.0052490271627902985,0.0014648447977378964,0.9995734691619873,-0.06640627235174179,-0.5742189288139343,9.707035064697266,0.005859379190951586,-0.003906252793967724,0.009765632450580597
4713,-0.02923586033284664,0.0052490271627902985,0.0014648447977378964,0.9995734691619873,-0.06640627235174179,-0.5742189288139343,9.707035064697266,0.005859379190951586,-0.003906252793967724,0.009765632450580597
4731,-0.02923586033284664,0.0052490271627902985,0.0014648447977378964,0.9995734691619873,-0.11328128725290298,-0.5468751788139343,9.753910064697266,0.005859379190951586,-0.003906252793967724,0.009765632450580597
4751,-0.02923586033284664,0.0052490271627902985,0.0014648447977378964,0.9995734691619873,-0.08593752980232239,-0.5156251788139343,9.703128814697266,0.005859379190951586,-0.003906252793967724,0.009765632450580597
4764,-0.02923586033284664,0.0052490271627902985,0.0014648447977378964,0.9995734691619873,-0.10546878725290298,-0.5468751788139343,9.730472564697266,0.005859379190951586,-0.003906252793967724,0.009765632450580597
4784,-0.02923586033284664,0.0052490271627902985,0.0014648447977378964,0.9995734691619873,-0.08593752980232239,-0.5351564288139343,9.687503814697266,0.005859379190951586,-0.003906252793967724,0.009765632450580597
4799,-0.02923586033284664,0.0052490271627902985,0.0014648447977378964,0.9995734691619873,-0.08593752980232239,-0.5351564288139343,9.687503814697266,-0.007812505587935448,0.001953126396983862,-0.005859379190951586
4817,-0.02923586033284664,0.0052490271627902985,0.0014648447977378964,0.9995734691619873,-0.08593752980232239,-0.5351564288139343,9.687503814697266,-0.007812505587935448,0.0,0.011718758381903172
4833,-0.02923586033284664,0.0052490271627902985,0.0014648447977378964,0.9995734691619873,-0.08593752980232239,-0.5351564288139343,9.687503814697266,-0.005859379190951586,0.013671884313225746,-0.005859379190951586
4851,-0.02923586033284664,0.0052490271627902985,0.0014648447977378964,0.9995734691619873,-0.08593752980232239,-0.5351564288139343,9.687503814697266,-0.005859379190951586,0.013671884313225746,-0.005859379190951586
4867,-0.02923586033284664,0.0052490271627902985,0.0014648447977378964,0.9995734691619873,-0.08593752980232239,-0.5351564288139343,9.687503814697266,-0.001953126396983862,0.0,-0.005859379190951586
4885,-0.02917482517659664,0.0053710974752902985,0.0017089855391532183,0.9995734691619873,-0.08593752980232239,-0.5351564288139343,9.687503814697266,-0.001953126396983862,0.0,-0.005859379190951586
4920,-0.02917482517659664,0.0053710974752902985,0.0017089855391532183,0.9995734691619873,-0.08593752980232239,-0.5351564288139343,9.687503814697266,-0.003906252793967724,0.0,0.0
4938,-0.02917482517659664,0.0053710974752902985,0.0017089855391532183,0.9995734691619873,-0.08593752980232239,-0.5351564288139343,9.687503814697266,-0.003906252793967724,-0.013671884313225746,0.011718758381903172
4961,-0.02917482517659664,0.0053710974752902985,0.0017089855391532183,0.9995734691619873,-0.08593752980232239,-0.5078126788139343,9.730472564697266,-0.003906252793967724,-0.013671884313225746,0.011718758381903172
4976,-0.02917482517659664,0.0053710974752902985,0.0017089855391532183,0.9995734691619873,-0.08593752980232239,-0.5078126788139343,9.730472564697266,0.0,-0.013671884313225746,0.011718758381903172
4995,-0.02917482517659664,0.0053710974752902985,0.0017089855391532183,0.9995734691619873,-0.14453129470348358,-0.5468751788139343,9.679691314697266,0.0,-0.013671884313225746,0.011718758381903172
5010,-0.02917482517659664,0.0053710974752902985,0.0017089855391532183,0.9995734691619873,-0.10546878725290298,-0.5273439288139343,9.734378814697266,0.0,-0.013671884313225746,0.011718758381903172
5028,-0.02917482517659664,0.0053710974752902985,0.0017089855391532183,0.9995734691619873,-0.07812502980232239,-0.5156251788139343,9.687503814697266,0.0,-0.013671884313225746,0.011718758381903172
5048,-0.02917482517659664,0.0053710974752902985,0.0017089855391532183,0.9995734691619873,-0.06640627235174179,-0.5351564288139343,9.683597564697266,0.0,-0.013671884313225746,0.011718758381903172
5061,-0.02917482517659664,0.0053710974752902985,0.0017089855391532183,0.9995734691619873,-0.10546878725290298,-0.5664064288139343,9.691410064697266,0.0,-0.013671884313225746,0.011718758381903172
5080,-0.02917482517659664,0.0053710974752902985,0.0017089855391532183,0.9995734691619873,-0.07812502980232239,-0.5351564288139343,9.691410064697266,0.0,-0.013671884313225746,0.011718758381903172
5100,-0.02917482517659664,0.0053710974752902985,0.0017089855391532183,0.9995734691619873,-0.07812502980232239,-0.5351564288139343,9.691410064697266,-0.007812505587935448,0.003906252793967724,0.003906252793967724
5116,-0.02917482517659664,0.0053710974752902985,0.0017089855391532183,0.9995734691619873,-0.07812502980232239,-0.5351564288139343,9.691410064697266,-0.001953126396983862,-0.003906252793967724,-0.007812505587935448
5134,-0.02917482517659664,0.0053710974752902985,0.0017089855391532183,0.9995734691619873,-0.08593752980232239,-0.5351564288139343,9.707035064697266,-0.001953126396983862,-0.003906252793967724,-0.007812505587935448
5150,-0.02917482517659664,0.0053710974752902985,0.0017089855391532183,0.9995734691619873,-0.09765628725290298,-0.5468751788139343,9.707035064697266,-0.001953126396983862,-0.003906252793967724,-0.007812505587935448
5168,-0.02917482517659664,0.0053710974752902985,0.0017089855391532183,0.9995734691619873,-0.09765628725290298,-0.5351564288139343,9.734378814697266,-0.001953126396983862,-0.003906252793967724,-0.007812505587935448
5184,-0.02917482517659664,0.0053710974752902985,0.0017089855391532183,0.9995734691619873,-0.09765628725290298,-0.5546876788139343,9.714847564697266,-0.001953126396983862,-0.003906252793967724,-0.007812505587935448
5201,-0.02917482517659664,0.0053710974752902985,0.0017089855391532183,0.9995734691619873,-0.09765628725290298,-0.5546876788139343,9.714847564697266,0.0,0.009765632450580597,0.0
5218,-0.02917482517659664,0.0053710974752902985,0.0017089855391532183,0.9995734691619873,-0.10546878725290298,-0.5351564288139343,9.691410064697266,0.0,0.009765632450580597,0.0
5234,-0.02917482517659664,0.0053710974752902985,0.0017089855391532183,0.9995734691619873,-0.10546878725290298,-0.5351564288139343,9.691410064697266,0.001953126396983862,-0.011718758381903172,0.003906252793967724
5256,-0.02917482517659664,0.0053710974752902985,0.0017089855391532183,0.9995734691619873,-0.10546878725290298,-0.5351564288139343,9.691410064697266,-0.013671884313225746,0.003906252793967724,-0.001953126396983862
5272,-0.02917482517659664,0.0053710974752902985,0.0017089855391532183,0.9995734691619873,-0.10546878725290298,-0.5351564288139343,9.691410064697266,0.0,0.0,0.0
5288,-0.02917482517659664,0.0053710974752902985,0.0017089855391532183,0.9995734691619873,-0.10546878725290298,-0.5351564288139343,9.691410064697266,0.0,0.0,0.0
5306,-0.02917482517659664,0.0053710974752902985,0.0017089855391532183,0.9995734691619873,-0.11328128725290298,-0.5351564288139343,9.738285064697266,0.0,0.0,0.0
5322,-0.02917482517659664,0.0053710974752902985,0.0017089855391532183,0.9995734691619873,-0.11328128725290298,-0.5351564288139343,9.738285064697266,0.0,0.0,0.0
5360,-0.02917482517659664,0.0053710974752902985,0.0017089855391532183,0.9995734691619873,-0.11328128725290298,-0.5351564288139343,9.738285064697266,0.0,0.0,0.0
5374,-0.02917482517659664,0.0053710974752902985,0.0017089855391532183,0.9995734691619873,-0.12500004470348358,-0.5546876788139343,9.714847564697266,0.0,0.0,0.0
5393,-0.02917482517659664,0.0053710974752902985,0.0017089855391532183,0.9995734691619873,-0.12500004470348358,-0.5546876788139343,9.714847564697266,0.0,0.0,0.0
5408,-0.02917482517659664,0.0053710974752902985,0.0017089855391532183,0.9995734691619873,-0.12500004470348358,-0.5546876788139343,9.714847564697266,0.0,0.0,0.0
5427,-0.02917482517659664,0.0053710974752902985,0.0017089855391532183,0.9995734691619873,-0.12500004470348358,-0.5546876788139343,9.714847564697266,0.0,0.0,0.0
5442,-0.02917482517659664,0.0053710974752902985,0.0017089855391532183,0.9995734691619873,-0.12500004470348358,-0.5546876788139343,9.714847564697266,0.0,0.0,0.0
5460,-0.02917482517659664,0.0053710974752902985,0.0017089855391532183,0.9995734691619873,-0.12500004470348358,-0.5546876788139343,9.714847564697266,0.0,0.0,0.0
5476,-0.02917482517659664,0.0053710974752902985,0.0017089855391532183,0.9995734691619873,-0.12500004470348358,-0.5546876788139343,9.714847564697266,0.0,0.0,0.0
5498,-0.02917482517659664,0.0053710974752902985,0.0017089855391532183,0.9995734691619873,-0.08593752980232239,-0.5156251788139343,9.703128814697266,0.0,0.0,0.0
5516,-0.02917482517659664,0.0053710974752902985,0.0017089855391532183,0.9995734691619873,-0.08593752980232239,-0.5156251788139343,9.703128814697266,0.0,0.0,0.0
5538,-0.02917482517659664,0.0053710974752902985,0.0017089855391532183,0.9995734691619873,-0.08593752980232239,-0.5156251788139343,9.703128814697266,0.0,0.0,0.0
5559,-0.02917482517659664,0.0053710974752902985,0.0017089855391532183,0.9995734691619873,-0.08593752980232239,-0.5156251788139343,9.703128814697266,0.0,0.0,0.0
5579,-0.02917482517659664,0.0053710974752902985,0.0017089855391532183,0.9995734691619873,-0.08593752980232239,-0.5156251788139343,9.703128814697266,0.0,0.0,0.0
5595,-0.02917482517659664,0.0053710974752902985,0.0017089855391532183,0.9995734691619873,-0.09765628725290298,-0.5351564288139343,9.710941314697266,0.0,0.0,0.0
5613,-0.02917482517659664,0.0053710974752902985,0.0017089855391532183,0.9995734691619873,-0.10546878725290298,-0.5273439288139343,9.687503814697266,0.0,0.0,0.0
5628,-0.02917482517659664,0.0053710974752902985,0.0017089855391532183,0.9995734691619873,-0.10546878725290298,-0.5273439288139343,9.687503814697266,0.0,0.0,0.0
5647,-0.02917482517659664,0.0053710974752902985,0.0017089855391532183,0.9995734691619873,-0.11328128725290298,-0.4960939288139343,9.691410064697266,0.0,0.0,0.0
5682,-0.02917482517659664,0.0053710974752902985,0.0017089855391532183,0.9995734691619873,-0.11328128725290298,-0.4960939288139343,9.691410064697266,0.0,0.0,0.0
5699,-0.02917482517659664,0.0053710974752902985,0.0017089855391532183,0.9995734691619873,-0.11328128725290298,-0.4960939288139343,9.691410064697266,0.0,0.0,0.0
5716,-0.02917482517659664,0.0053710974752902985,0.0017089855391532183,0.9995734691619873,-0.11328128725290298,-0.4960939288139343,9.691410064697266,0.0,0.0,0.0
5733,-0.02917482517659664,0.0053710974752902985,0.0017089855391532183,0.9995734691619873,-0.09765628725290298,-0.5273439288139343,9.714847564697266,0.0,0.0,0.0
5753,-0.02917482517659664,0.0053710974752902985,0.0017089855391532183,0.9995734691619873,-0.09765628725290298,-0.5273439288139343,9.714847564697266,0.0,0.0,0.0
5791,-0.02917482517659664,0.0053710974752902985,0.0017089855391532183,0.9995734691619873,-0.09765628725290298,-0.5273439288139343,9.714847564697266,0.0,0.0,0.0
5827,-0.02917482517659664,0.0053710974752902985,0.0017089855391532183,0.9995734691619873,-0.09765628725290298,-0.5273439288139343,9.714847564697266,0.0,0.0,0.0
5842,-0.02917482517659664,0.0053710974752902985,0.0017089855391532183,0.9995734691619873,-0.07812502980232239,-0.5859377384185791,9.707035064697266,0.0,0.0,0.0
5861,-0.02917482517659664,0.0053710974752902985,0.0017089855391532183,0.9995734691619873,-0.06640627235174179,-0.5156251788139343,9.722660064697266,0.0,0.0,0.0
5876,-0.02917482517659664,0.0053710974752902985,0.0017089855391532183,0.9995734691619873,-0.06640627235174179,-0.5156251788139343,9.722660064697266,0.0,0.0,0.0
5895,-0.02807619236409664,0.004638675134629011,0.0025024432688951492,0.9995734691619873,-0.06640627235174179,-0.5156251788139343,9.722660064697266,0.0,0.0,0.0
5913,-0.02807619236409664,0.004638675134629011,0.0025024432688951492,0.9995734691619873,-0.10546878725290298,-0.4960939288139343,9.664066314697266,0.0,0.0,0.0
5936,-0.02807619236409664,0.004638675134629011,0.0025024432688951492,0.9995734691619873,-0.07812502980232239,-0.5468751788139343,9.730472564697266,0.0,0.0,0.0
5951,-0.02807619236409664,0.004638675134629011,0.0025024432688951492,0.9995734691619873,-0.06640627235174179,-0.5468751788139343,9.714847564697266,0.0,0.0,0.0
5969,-0.02807619236409664,0.004638675134629011,0.0025024432688951492,0.9995734691619873,-0.07812502980232239,-0.5156251788139343,9.679691314697266,0.0,0.0,0.0
5986,-0.02807619236409664,0.004638675134629011,0.0025024432688951492,0.9995734691619873,-0.06640627235174179,-0.5546876788139343,9.722660064697266,0.0,0.0,0.0
6004,-0.02807619236409664,0.004638675134629011,0.0025024432688951492,0.9995734691619873,-0.08593752980232239,-0.5351564288139343,9.726566314697266,0.0,0.0,0.0
6032,-0.02807619236409664,0.004638675134629011,0.0025024432688951492,0.9995734691619873,-0.08593752980232239,-0.5546876788139343,9.691410064697266,0.0,0.0,0.0
6047,-0.02807619236409664,0.004638675134629011,0.0025024432688951492,0.9995734691619873,-0.06640627235174179,-0.5546876788139343,9.726566314697266,0.0,0.0,0.0
6067,-0.02807619236409664,0.004638675134629011,0.0025024432688951492,0.9995734691619873,-0.06640627235174179,-0.5546876788139343,9.726566314697266,0.0,0.0,0.0
6082,-0.02807619236409664,0.004638675134629011,0.0025024432688951492,0.9995734691619873,-0.06640627235174179,-0.5546876788139343,9.726566314697266,0.0,0.0,0.0
6100,-0.02807619236409664,0.004638675134629011,0.0025024432688951492,0.9995734691619873,-0.06640627235174179,-0.5546876788139343,9.726566314697266,0.0,0.0,0.0
6116,-0.02807619236409664,0.004638675134629011,0.0025024432688951492,0.9995734691619873,-0.06640627235174179,-0.5546876788139343,9.726566314697266,0.0,0.0,0.0
6134,-0.02807619236409664,0.004638675134629011,0.0025024432688951492,0.9995734691619873,-0.06640627235174179,-0.5546876788139343,9.726566314697266,0.0,0.0,0.0
6150,-0.02807619236409664,0.004638675134629011,0.0025024432688951492,0.9995734691619873,-0.06640627235174179,-0.5546876788139343,9.726566314697266,0.0,0.0,0.0
6169,-0.02807619236409664,0.004638675134629011,0.0025024432688951492,0.9995734691619873,-0.06640627235174179,-0.5546876788139343,9.726566314697266,0.0,0.0,0.0
6184,-0.02807619236409664,0.004638675134629011,0.0025024432688951492,0.9995734691619873,-0.06640627235174179,-0.5546876788139343,9.726566314697266,0.0,0.0,0.0
6207,-0.02807619236409664,0.004638675134629011,0.0025024432688951492,0.9995734691619873,-0.09765628725290298,-0.5742189288139343,9.730472564697266,0.0,0.0,0.0
6225,-0.02807619236409664,0.004638675134629011,0.0025024432688951492,0.9995734691619873,-0.09765628725290298,-0.5742189288139343,9.730472564697266,0.0,0.0,0.0
6248,-0.02807619236409664,0.004638675134629011,0.0025024432688951492,0.9995734691619873,-0.08593752980232239,-0.5156251788139343,9.730472564697266,0.0,0.0,0.0
6263,-0.02807619236409664,0.004638675134629011,0.0025024432688951492,0.9995734691619873,-0.06640627235174179,-0.5742189288139343,9.707035064697266,0.0,0.0,0.0
6286,-0.02807619236409664,0.004638675134629011,0.0025024432688951492,0.9995734691619873,-0.12500004470348358,-0.5273439288139343,9.757816314697266,0.0,0.0,0.0
6304,-0.02807619236409664,0.004638675134629011,0.0025024432688951492,0.9995734691619873,-0.12500004470348358,-0.5273439288139343,9.757816314697266,0.0,0.0,0.0
6327,-0.02807619236409664,0.004638675134629011,0.0025024432688951492,0.9995734691619873,-0.09765628725290298,-0.5273439288139343,9.683597564697266,0.0,0.0,0.0
6342,-0.02807619236409664,0.004638675134629011,0.0025024432688951492,0.9995734691619873,-0.07812502980232239,-0.5351564288139343,9.703128814697266,0.0,0.0,0.0
6361,-0.02807619236409664,0.004638675134629011,0.0025024432688951492,0.9995734691619873,-0.09765628725290298,-0.5351564288139343,9.687503814697266,0.0,0.0,0.0
6377,-0.02807619236409664,0.004638675134629011,0.0025024432688951492,0.9995734691619873,-0.09765628725290298,-0.5351564288139343,9.687503814697266,0.0,0.0,0.0
6395,-0.02807619236409664,0.004638675134629011,0.0025024432688951492,0.9995734691619873,-0.10546878725290298,-0.5468751788139343,9.671878814697266,0.0,0.0,0.0
6412,-0.02807619236409664,0.004638675134629011,0.0025024432688951492,0.9995734691619873,-0.10546878725290298,-0.5546876788139343,9.750003814697266,0.0,0.0,0.0
6430,-0.02807619236409664,0.004638675134629011,0.0025024432688951492,0.9995734691619873,-0.07812502980232239,-0.5664064288139343,9.683597564697266,0.0,0.0,0.0
6447,-0.02807619236409664,0.004638675134629011,0.0025024432688951492,0.9995734691619873,-0.07812502980232239,-0.5468751788139343,9.753910064697266,0.0,0.0,0.0
6465,-0.02807619236409664,0.004638675134629011,0.0025024432688951492,0.9995734691619873,-0.07812502980232239,-0.5468751788139343,9.738285064697266,0.0,0.0,0.0
6481,-0.02807619236409664,0.004638675134629011,0.0025024432688951492,0.9995734691619873,-0.07812502980232239,-0.5468751788139343,9.738285064697266,0.0,0.0,0.0
6500,-0.02807619236409664,0.004638675134629011,0.0025024432688951492,0.9995734691619873,-0.08593752980232239,-0.5664064288139343,9.726566314697266,0.0,0.0,0.0
6515,-0.02807619236409664,0.004638675134629011,0.0025024432688951492,0.9995734691619873,-0.08593752980232239,-0.5664064288139343,9.726566314697266,0.0,0.0,0.0
6535,-0.02807619236409664,0.004638675134629011,0.0025024432688951492,0.9995734691619873,-0.09765628725290298,-0.5468751788139343,9.710941314697266,0.0,0.0,0.0
6550,-0.02807619236409664,0.004638675134629011,0.0025024432688951492,0.9995734691619873,-0.09765628725290298,-0.5468751788139343,9.710941314697266,0.0,0.0,0.0
6569,-0.02807619236409664,0.004638675134629011,0.0025024432688951492,0.9995734691619873,-0.08593752980232239,-0.5351564288139343,9.707035064697266,0.0,0.0,0.0
6585,-0.02807619236409664,0.004638675134629011,0.0025024432688951492,0.9995734691619873,-0.08593752980232239,-0.5351564288139343,9.707035064697266,0.0,0.0,0.0
6603,-0.02807619236409664,0.004638675134629011,0.0025024432688951492,0.9995734691619873,-0.07812502980232239,-0.5351564288139343,9.703128814697266,0.0,0.0,0.0
6620,-0.02807619236409664,0.004638675134629011,0.0025024432688951492,0.9995734691619873,-0.07812502980232239,-0.5351564288139343,9.703128814697266,0.0,0.0,0.0
6638,-0.02807619236409664,0.004638675134629011,0.0025024432688951492,0.9995734691619873,-0.10546878725290298,-0.5546876788139343,9.750003814697266,0.0,0.0,0.0
6654,-0.02807619236409664,0.004638675134629011,0.0025024432688951492,0.9995734691619873,-0.10546878725290298,-0.5546876788139343,9.750003814697266,0.0,0.0,0.0
6673,-0.02807619236409664,0.004638675134629011,0.0025024432688951492,0.9995734691619873,-0.06640627235174179,-0.5351564288139343,9.753910064697266,0.0,0.0,0.0
6688,-0.02807619236409664,0.004638675134629011,0.0025024432688951492,0.9995734691619873,-0.09765628725290298,-0.5156251788139343,9.664066314697266,0.0,0.0,0.0
6707,-0.02807619236409664,0.004638675134629011,0.0025024432688951492,0.9995734691619873,-0.10546878725290298,-0.5351564288139343,9.714847564697266,0.0,0.0,0.0
6725,-0.02807619236409664,0.004638675134629011,0.0025024432688951492,0.9995734691619873,-0.08593752980232239,-0.5351564288139343,9.722660064697266,0.0,0.0,0.0
6748,-0.02807619236409664,0.004638675134629011,0.0025024432688951492,0.9995734691619873,-0.05859377235174179,-0.5156251788139343,9.687503814697266,0.0,0.0,0.0
6763,-0.02807619236409664,0.004638675134629011,0.0025024432688951492,0.9995734691619873,-0.07812502980232239,-0.5273439288139343,9.687503814697266,0.0,0.0,0.0
6781,-0.02807619236409664,0.004638675134629011,0.0025024432688951492,0.9995734691619873,-0.08593752980232239,-0.5468751788139343,9.707035064697266,0.0,0.0,0.0
6798,-0.02807619236409664,0.004638675134629011,0.0025024432688951492,0.9995734691619873,-0.08593752980232239,-0.5468751788139343,9.707035064697266,0.0,0.0,0.0
6816,-0.02807619236409664,0.004638675134629011,0.0025024432688951492,0.9995734691619873,-0.05859377235174179,-0.5351564288139343,9.691410064697266,0.0,0.0,0.0
6832,-0.02807619236409664,0.004638675134629011,0.0025024432688951492,0.9995734691619873,-0.05859377235174179,-0.5351564288139343,9.691410064697266,0.0,0.0,0.0
6850,-0.02807619236409664,0.004638675134629011,0.0025024432688951492,0.9995734691619873,-0.05859377235174179,-0.5351564288139343,9.691410064697266,0.0,0.0,0.0
6868,-0.02807619236409664,0.004638675134629011,0.0025024432688951492,0.9995734691619873,-0.06640627235174179,-0.5156251788139343,9.710941314697266,0.0,0.0,0.0
6885,-0.02807619236409664,0.004638675134629011,0.0025024432688951492,0.9995734691619873,-0.08593752980232239,-0.5351564288139343,9.722660064697266,0.0,0.0,0.0
6920,-0.02807619236409664,0.004638675134629011,0.0025024432688951492,0.9995734691619873,-0.08593752980232239,-0.5351564288139343,9.722660064697266,0.0,0.0,0.0
6953,-0.02807619236409664,0.004638675134629011,0.0025024432688951492,0.9995734691619873,-0.08593752980232239,-0.5351564288139343,9.722660064697266,0.0,0.0,0.0
6972,-0.02807619236409664,0.004638675134629011,0.0025024432688951492,0.9995734691619873,-0.08593752980232239,-0.5351564288139343,9.722660064697266,0.0,0.0,0.0
6985,-0.02807619236409664,0.004638675134629011,0.0025024432688951492,0.9995734691619873,-0.07812502980232239,-0.5546876788139343,9.722660064697266,0.0,0.0,0.0
7003,-0.02807619236409664,0.004638675134629011,0.0025024432688951492,0.9995734691619873,-0.07812502980232239,-0.5546876788139343,9.722660064697266,0.0,0.0,0.0
7019,-0.02807619236409664,0.004638675134629011,0.0025024432688951492,0.9995734691619873,-0.09765628725290298,-0.5468751788139343,9.722660064697266,0.0,0.0,0.0
7036,-0.02807619236409664,0.004638675134629011,0.0025024432688951492,0.9995734691619873,-0.09765628725290298,-0.5468751788139343,9.722660064697266,0.0,0.0,0.0
7053,-0.02807619236409664,0.004638675134629011,0.0025024432688951492,0.9995734691619873,-0.09765628725290298,-0.5351564288139343,9.726566314697266,0.0,0.0,0.0
7087,-0.02807619236409664,0.004638675134629011,0.0025024432688951492,0.9995734691619873,-0.09765628725290298,-0.5351564288139343,9.726566314697266,0.0,0.0,0.0
7103,-0.02807619236409664,0.004638675134629011,0.0025024432688951492,0.9995734691619873,-0.10546878725290298,-0.5664064288139343,9.703128814697266,0.0,0.0,0.0
7141,-0.02807619236409664,0.004638675134629011,0.0025024432688951492,0.9995734691619873,-0.10546878725290298,-0.5664064288139343,9.703128814697266,0.0,0.0,0.0
7163,-0.02807619236409664,0.004638675134629011,0.0025024432688951492,0.9995734691619873,-0.11328128725290298,-0.5351564288139343,9.714847564697266,0.0,0.0,0.0
7179,-0.02807619236409664,0.004638675134629011,0.0025024432688951492,0.9995734691619873,-0.08593752980232239,-0.5546876788139343,9.691410064697266,0.0,0.0,0.0
7197,-0.02807619236409664,0.004638675134629011,0.0025024432688951492,0.9995734691619873,-0.08593752980232239,-0.5156251788139343,9.718753814697266,0.0,0.0,0.0
7213,-0.02807619236409664,0.004638675134629011,0.0025024432688951492,0.9995734691619873,-0.08593752980232239,-0.5156251788139343,9.718753814697266,0.0,0.0,0.0
7231,-0.02807619236409664,0.004638675134629011,0.0025024432688951492,0.9995734691619873,-0.08593752980232239,-0.5156251788139343,9.718753814697266,0.0,0.0,0.0
7250,-0.02807619236409664,0.004638675134629011,0.0025024432688951492,0.9995734691619873,-0.08593752980232239,-0.5468751788139343,9.726566314697266,0.0,0.0,0.0
7273,-0.02807619236409664,0.004638675134629011,0.0025024432688951492,0.9995734691619873,-0.08593752980232239,-0.5273439288139343,9.718753814697266,0.0,0.0,0.0
7288,-0.02807619236409664,0.004638675134629011,0.0025024432688951492,0.9995734691619873,-0.06640627235174179,-0.4882814288139343,9.640628814697266,0.0,0.0,0.0
7307,-0.02807619236409664,0.004638675134629011,0.0025024432688951492,0.9995734691619873,-0.09765628725290298,-0.5468751788139343,9.707035064697266,0.0,0.0,0.0
7322,-0.02807619236409664,0.004638675134629011,0.0025024432688951492,0.9995734691619873,-0.09765628725290298,-0.5468751788139343,9.707035064697266,0.0,0.0,0.0
7341,-0.02807619236409664,0.004638675134629011,0.0025024432688951492,0.9995734691619873,-0.08593752980232239,-0.5351564288139343,9.710941314697266,0.0,0.0,0.0
7356,-0.02807619236409664,0.004638675134629011,0.0025024432688951492,0.9995734691619873,-0.07812502980232239,-0.5156251788139343,9.687503814697266,0.0,0.0,0.0
7374,-0.02807619236409664,0.004638675134629011,0.0025024432688951492,0.9995734691619873,-0.07812502980232239,-0.5156251788139343,9.687503814697266,0.0,0.0,0.0
7411,-0.02807619236409664,0.004638675134629011,0.0025024432688951492,0.9995734691619873,-0.07812502980232239,-0.5156251788139343,9.687503814697266,0.0,0.0,0.0
7427,-0.02807619236409664,0.004638675134629011,0.0025024432688951492,0.9995734691619873,-0.08593752980232239,-0.5351564288139343,9.687503814697266,0.0,0.0,0.0
7445,-0.02807619236409664,0.004638675134629011,0.0025024432688951492,0.9995734691619873,-0.06640627235174179,-0.5546876788139343,9.734378814697266,0.0,0.0,0.0
7460,-0.02807619236409664,0.004638675134629011,0.0025024432688951492,0.9995734691619873,-0.06640627235174179,-0.5546876788139343,9.734378814697266,0.0,0.0,0.0
7479,-0.02807619236409664,0.004638675134629011,0.0025024432688951492,0.9995734691619873,-0.06640627235174179,-0.5546876788139343,9.734378814697266,0.0,0.0,0.0
7507,-0.02807619236409664,0.004638675134629011,0.0025024432688951492,0.9995734691619873,-0.09765628725290298,-0.5546876788139343,9.714847564697266,0.0,0.0,0.0
7523,-0.02807619236409664,0.004638675134629011,0.0025024432688951492,0.9995734691619873,-0.07812502980232239,-0.5351564288139343,9.753910064697266,0.0,0.0,0.0
7541,-0.02807619236409664,0.004638675134629011,0.0025024432688951492,0.9995734691619873,-0.07812502980232239,-0.5351564288139343,9.753910064697266,0.0,0.0,0.0
7557,-0.02807619236409664,0.004638675134629011,0.0025024432688951492,0.9995734691619873,-0.07812502980232239,-0.5351564288139343,9.753910064697266,0.0,0.0,0.0
7579,-0.02807619236409664,0.004638675134629011,0.0025024432688951492,0.9995734691619873,-0.07812502980232239,-0.5351564288139343,9.753910064697266,0.0,0.0,0.0
7595,-0.02807619236409664,0.004638675134629011,0.0025024432688951492,0.9995734691619873,-0.08593752980232239,-0.5546876788139343,9.753910064697266,0.0,0.0,0.0
7613,-0.02807619236409664,0.004638675134629011,0.0025024432688951492,0.9995734691619873,-0.08593752980232239,-0.5351564288139343,9.687503814697266,0.0,0.0,0.0
7628,-0.02807619236409664,0.004638675134629011,0.0025024432688951492,0.9995734691619873,-0.08593752980232239,-0.5351564288139343,9.687503814697266,0.0,0.0,0.0
7647,-0.02807619236409664,0.004638675134629011,0.0025024432688951492,0.9995734691619873,-0.07812502980232239,-0.5664064288139343,9.730472564697266,0.0,0.0,0.0
7666,-0.02807619236409664,0.004638675134629011,0.0025024432688951492,0.9995734691619873,-0.08593752980232239,-0.5351564288139343,9.734378814697266,0.0,0.0,0.0
7682,-0.02807619236409664,0.004638675134629011,0.0025024432688951492,0.9995734691619873,-0.09765628725290298,-0.5546876788139343,9.714847564697266,0.0,0.0,0.0
7716,-0.02807619236409664,0.004638675134629011,0.0025024432688951492,0.9995734691619873,-0.09765628725290298,-0.5546876788139343,9.714847564697266,0.0,0.0,0.0
7750,-0.02807619236409664,0.004638675134629011,0.0025024432688951492,0.9995734691619873,-0.09765628725290298,-0.5546876788139343,9.714847564697266,0.0,0.0,0.0
7769,-0.02807619236409664,0.004638675134629011,0.0025024432688951492,0.9995734691619873,-0.09765628725290298,-0.5546876788139343,9.714847564697266,0.0,0.0,0.0
7784,-0.02807619236409664,0.004638675134629011,0.0025024432688951492,0.9995734691619873,-0.08593752980232239,-0.5078126788139343,9.703128814697266,0.0,0.0,0.0
7802,-0.02807619236409664,0.004638675134629011,0.0025024432688951492,0.9995734691619873,-0.08593752980232239,-0.5078126788139343,9.703128814697266,0.0,0.0,0.0
7819,-0.02807619236409664,0.004638675134629011,0.0025024432688951492,0.9995734691619873,-0.08593752980232239,-0.5078126788139343,9.703128814697266,0.0,0.0,0.0
7837,-0.02807619236409664,0.004638675134629011,0.0025024432688951492,0.9995734691619873,-0.08593752980232239,-0.5078126788139343,9.703128814697266,0.0,0.0,0.0
7853,-0.02807619236409664,0.004638675134629011,0.0025024432688951492,0.9995734691619873,-0.08593752980232239,-0.5078126788139343,9.703128814697266,0.0,0.0,0.0
7871,-0.02807619236409664,0.004638675134629011,0.0025024432688951492,0.9995734691619873,-0.08593752980232239,-0.5664064288139343,9.726566314697266,0.0,0.0,0.0
7886,-0.02807619236409664,0.004638675134629011,0.0025024432688951492,0.9995734691619873,-0.09765628725290298,-0.5546876788139343,9.714847564697266,0.0,0.0,0.0
7909,-0.02807619236409664,0.004638675134629011,0.0025024432688951492,0.9995734691619873,-0.09765628725290298,-0.5468751788139343,9.707035064697266,0.0,0.0,0.0
7928,-0.02807619236409664,0.004638675134629011,0.0025024432688951492,0.9995734691619873,-0.09765628725290298,-0.5468751788139343,9.707035064697266,0.0,0.0,0.0
7951,-0.02807619236409664,0.004638675134629011,0.0025024432688951492,0.9995734691619873,-0.05859377235174179,-0.5468751788139343,9.714847564697266,0.0,0.0,0.0
7966,-0.02807619236409664,0.004638675134629011,0.0025024432688951492,0.9995734691619873,-0.08593752980232239,-0.5546876788139343,9.738285064697266,0.0,0.0,0.0
7989,-0.02807619236409664,0.004638675134629011,0.0025024432688951492,0.9995734691619873,-0.08593752980232239,-0.5468751788139343,9.761722564697266,0.0,0.0,0.0
8025,-0.02807619236409664,0.004638675134629011,0.0025024432688951492,0.9995734691619873,-0.08593752980232239,-0.5468751788139343,9.761722564697266,0.0,0.0,0.0
8040,-0.02807619236409664,0.004638675134629011,0.0025024432688951492,0.9995734691619873,-0.07812502980232239,-0.5546876788139343,9.734378814697266,0.0,0.0,0.0
8058,-0.02807619236409664,0.004638675134629011,0.0025024432688951492,0.9995734691619873,-0.08593752980232239,-0.5468751788139343,9.710941314697266,0.0,0.0,0.0
8075,-0.02807619236409664,0.004638675134629011,0.0025024432688951492,0.9995734691619873,-0.05859377235174179,-0.5273439288139343,9.722660064697266,0.0,0.0,0.0
8093,-0.02807619236409664,0.004638675134629011,0.0025024432688951492,0.9995734691619873,-0.09765628725290298,-0.5351564288139343,9.679691314697266,0.0,0.0,0.0
8127,-0.02807619236409664,0.004638675134629011,0.0025024432688951492,0.9995734691619873,-0.09765628725290298,-0.5351564288139343,9.679691314697266,0.0,0.0,0.0
8146,-0.02807619236409664,0.004638675134629011,0.0025024432688951492,0.9995734691619873,-0.08593752980232239,-0.5273439288139343,9.730472564697266,0.0,0.0,0.0
8168,-0.02807619236409664,0.004638675134629011,0.0025024432688951492,0.9995734691619873,-0.08593752980232239,-0.5468751788139343,9.707035064697266,0.0,0.0,0.0
8183,-0.02807619236409664,0.004638675134629011,0.0025024432688951492,0.9995734691619873,-0.06640627235174179,-0.5351564288139343,9.738285064697266,0.0,0.0,0.0
8207,-0.02807619236409664,0.004638675134629011,0.0025024432688951492,0.9995734691619873,-0.06640627235174179,-0.5664064288139343,9.691410064697266,0.0,0.0,0.0
8225,-0.02807619236409664,0.004638675134629011,0.0025024432688951492,0.9995734691619873,-0.06640627235174179,-0.5664064288139343,9.691410064697266,0.0,0.0,0.0
8248,-0.02807619236409664,0.004638675134629011,0.0025024432688951492,0.9995734691619873,-0.08593752980232239,-0.5351564288139343,9.710941314697266,0.0,0.0,0.0
8263,-0.02807619236409664,0.004638675134629011,0.0025024432688951492,0.9995734691619873,-0.06640627235174179,-0.5664064288139343,9.691410064697266,0.0,0.0,0.0
8286,-0.02807619236409664,0.004638675134629011,0.0025024432688951492,0.9995734691619873,-0.10546878725290298,-0.5273439288139343,9.734378814697266,0.0,0.0,0.0
8322,-0.02807619236409664,0.004638675134629011,0.0025024432688951492,0.9995734691619873,-0.10546878725290298,-0.5273439288139343,9.734378814697266,0.0,0.0,0.0
8337,-0.02807619236409664,0.004638675134629011,0.0025024432688951492,0.9995734691619873,-0.09765628725290298,-0.5351564288139343,9.722660064697266,0.0,0.0,0.0
8359,-0.02807619236409664,0.004638675134629011,0.0025024432688951492,0.9995734691619873,-0.11328128725290298,-0.5351564288139343,9.738285064697266,0.0,0.0,0.0
8375,-0.02807619236409664,0.004638675134629011,0.0025024432688951492,0.9995734691619873,-0.11328128725290298,-0.5351564288139343,9.738285064697266,0.0,0.0,0.0
8394,-0.02807619236409664,0.004638675134629011,0.0025024432688951492,0.9995734691619873,-0.11328128725290298,-0.5351564288139343,9.738285064697266,0.0,0.0,0.0
8409,-0.02783205173909664,0.004150393418967724,0.0025024432688951492,0.9995734691619873,-0.11328128725290298,-0.5351564288139343,9.738285064697266,0.0,0.0,0.0
8426,-0.02783205173909664,0.004150393418967724,0.0025024432688951492,0.9995734691619873,-0.11328128725290298,-0.5351564288139343,9.738285064697266,0.0,0.0,0.0
8445,-0.02783205173909664,0.004150393418967724,0.0025024432688951492,0.9995734691619873,-0.10546878725290298,-0.5273439288139343,9.707035064697266,0.0,0.0,0.0
8463,-0.02783205173909664,0.004150393418967724,0.0025024432688951492,0.9995734691619873,-0.10546878725290298,-0.5273439288139343,9.707035064697266,0.0,0.0,0.0
8479,-0.02783205173909664,0.004150393418967724,0.0025024432688951492,0.9995734691619873,-0.08593752980232239,-0.5273439288139343,9.703128814697266,0.0,0.0,0.0
8497,-0.02783205173909664,0.004150393418967724,0.0025024432688951492,0.9995734691619873,-0.08593752980232239,-0.5273439288139343,9.703128814697266,0.0,0.0,0.0
8513,-0.02783205173909664,0.004150393418967724,0.0025024432688951492,0.9995734691619873,-0.07812502980232239,-0.5546876788139343,9.722660064697266,0.0,0.0,0.0
8550,-0.02783205173909664,0.004150393418967724,0.0025024432688951492,0.9995734691619873,-0.07812502980232239,-0.5546876788139343,9.722660064697266,0.0,0.0,0.0
8567,-0.02783205173909664,0.004150393418967724,0.0025024432688951492,0.9995734691619873,-0.07812502980232239,-0.5546876788139343,9.722660064697266,0.0,0.0,0.0
8584,-0.02783205173909664,0.004150393418967724,0.0025024432688951492,0.9995734691619873,-0.07812502980232239,-0.5273439288139343,9.687503814697266,0.0,0.0,0.0
8604,-0.02783205173909664,0.004150393418967724,0.0025024432688951492,0.9995734691619873,-0.07812502980232239,-0.5273439288139343,9.687503814697266,0.0,0.0,0.0
8620,-0.02783205173909664,0.004150393418967724,0.0025024432688951492,0.9995734691619873,-0.07812502980232239,-0.5273439288139343,9.687503814697266,0.0,0.0,0.0
8642,-0.02783205173909664,0.004150393418967724,0.0025024432688951492,0.9995734691619873,-0.06640627235174179,-0.5351564288139343,9.730472564697266,0.0,0.0,0.0
8660,-0.02783205173909664,0.004150393418967724,0.0025024432688951492,0.9995734691619873,-0.06640627235174179,-0.5351564288139343,9.730472564697266,0.0,0.0,0.0
8683,-0.02783205173909664,0.004150393418967724,0.0025024432688951492,0.9995734691619873,-0.07812502980232239,-0.5078126788139343,9.675785064697266,0.0,0.0,0.0
8704,-0.02783205173909664,0.004150393418967724,0.0025024432688951492,0.9995734691619873,-0.046875014901161194,-0.5351564288139343,9.691410064697266,0.0,0.0,0.0
8720,-0.02783205173909664,0.004150393418967724,0.0025024432688951492,0.9995734691619873,-0.046875014901161194,-0.5351564288139343,9.691410064697266,0.0,0.0,0.0
8737,-0.02783205173909664,0.004150393418967724,0.0025024432688951492,0.9995734691619873,-0.07812502980232239,-0.5742189288139343,9.687503814697266,0.0,0.0,0.0
8754,-0.02783205173909664,0.004150393418967724,0.0025024432688951492,0.9995734691619873,-0.07812502980232239,-0.5664064288139343,9.718753814697266,0.0,0.0,0.0
8771,-0.02783205173909664,0.004150393418967724,0.0025024432688951492,0.9995734691619873,-0.10546878725290298,-0.5078126788139343,9.667972564697266,0.0,0.0,0.0
8805,-0.02783205173909664,0.004150393418967724,0.0025024432688951492,0.9995734691619873,-0.10546878725290298,-0.5078126788139343,9.667972564697266,0.0,0.0,0.0
8819,-0.02783205173909664,0.004150393418967724,0.0025024432688951492,0.9995734691619873,-0.09765628725290298,-0.5468751788139343,9.710941314697266,0.0,0.0,0.0
8838,-0.02783205173909664,0.004150393418967724,0.0025024432688951492,0.9995734691619873,-0.09765628725290298,-0.5468751788139343,9.710941314697266,0.0,0.0,0.0
8853,-0.02783205173909664,0.004150393418967724,0.0025024432688951492,0.9995734691619873,-0.09765628725290298,-0.5468751788139343,9.710941314697266,0.0,0.0,0.0
8871,-0.02783205173909664,0.004150393418967724,0.0025024432688951492,0.9995734691619873,-0.09765628725290298,-0.5468751788139343,9.710941314697266,0.0,0.0,0.0
8888,-0.02783205173909664,0.004150393418967724,0.0025024432688951492,0.9995734691619873,-0.09765628725290298,-0.5468751788139343,9.710941314697266,0.0,0.0,0.0
8906,-0.02783205173909664,0.004150393418967724,0.0025024432688951492,0.9995734691619873,-0.09765628725290298,-0.5468751788139343,9.710941314697266,0.0,0.0,0.0
8922,-0.02783205173909664,0.004150393418967724,0.0025024432688951492,0.9995734691619873,-0.09765628725290298,-0.5468751788139343,9.710941314697266,0.0,0.0,0.0
8944,-0.02783205173909664,0.004150393418967724,0.0025024432688951492,0.9995734691619873,-0.09765628725290298,-0.5468751788139343,9.707035064697266,0.0,0.0,0.0
8961,-0.02783205173909664,0.004150393418967724,0.0025024432688951492,0.9995734691619873,-0.09765628725290298,-0.5468751788139343,9.707035064697266,0.0,0.0,0.0
8983,-0.02783205173909664,0.004150393418967724,0.0025024432688951492,0.9995734691619873,-0.09765628725290298,-0.5468751788139343,9.707035064697266,0.0,0.0,0.0
9000,-0.02783205173909664,0.004150393418967724,0.0025024432688951492,0.9995734691619873,-0.09765628725290298,-0.5468751788139343,9.707035064697266,0.0,0.0,0.0
9023,-0.02783205173909664,0.004150393418967724,0.0025024432688951492,0.9995734691619873,-0.09765628725290298,-0.5468751788139343,9.707035064697266,0.0,0.0,0.0
9058,-0.02783205173909664,0.004150393418967724,0.0025024432688951492,0.9995734691619873,-0.09765628725290298,-0.5468751788139343,9.707035064697266,0.0,0.0,0.0
9076,-0.02783205173909664,0.004150393418967724,0.0025024432688951492,0.9995734691619873,-0.09765628725290298,-0.5468751788139343,9.707035064697266,0.0,0.0,0.0
9099,-0.02783205173909664,0.004150393418967724,0.0025024432688951492,0.9995734691619873,-0.07812502980232239,-0.5351564288139343,9.730472564697266,0.0,0.0,0.0
9114,-0.02783205173909664,0.004150393418967724,0.0025024432688951492,0.9995734691619873,-0.08593752980232239,-0.5468751788139343,9.710941314697266,0.0,0.0,0.0
9137,-0.02783205173909664,0.004150393418967724,0.0025024432688951492,0.9995734691619873,-0.08593752980232239,-0.5351564288139343,9.707035064697266,0.0,0.0,0.0
9174,-0.02783205173909664,0.004150393418967724,0.0025024432688951492,0.9995734691619873,-0.08593752980232239,-0.5351564288139343,9.707035064697266,0.0,0.0,0.0
9189,-0.02783205173909664,0.004150393418967724,0.0025024432688951492,0.9995734691619873,-0.05859377235174179,-0.5468751788139343,9.718753814697266,0.0,0.0,0.0
9211,-0.02783205173909664,0.004150393418967724,0.0025024432688951492,0.9995734691619873,-0.06640627235174179,-0.5156251788139343,9.769535064697266,0.0,0.0,0.0
9227,-0.02783205173909664,0.004150393418967724,0.0025024432688951492,0.9995734691619873,-0.06640627235174179,-0.5156251788139343,9.769535064697266,0.0,0.0,0.0
9245,-0.02783205173909664,0.004150393418967724,0.0025024432688951492,0.9995734691619873,-0.06640627235174179,-0.5156251788139343,9.769535064697266,0.0,0.0,0.0
9261,-0.02783205173909664,0.004150393418967724,0.0025024432688951492,0.9995734691619873,-0.06640627235174179,-0.5156251788139343,9.769535064697266,0.0,0.0,0.0
9298,-0.02783205173909664,0.004150393418967724,0.0025024432688951492,0.9995734691619873,-0.06640627235174179,-0.5156251788139343,9.769535064697266,0.0,0.0,0.0
9315,-0.02783205173909664,0.004150393418967724,0.0025024432688951492,0.9995734691619873,-0.07812502980232239,-0.5351564288139343,9.738285064697266,0.0,0.0,0.0
9333,-0.02783205173909664,0.004150393418967724,0.0025024432688951492,0.9995734691619873,-0.07812502980232239,-0.5351564288139343,9.738285064697266,0.0,0.0,0.0
9349,-0.02783205173909664,0.004150393418967724,0.0025024432688951492,0.9995734691619873,-0.07812502980232239,-0.5351564288139343,9.738285064697266,0.0,0.0,0.0
9371,-0.02783205173909664,0.004150393418967724,0.0025024432688951492,0.9995734691619873,-0.07812502980232239,-0.5351564288139343,9.738285064697266,0.0,0.0,0.0
9387,-0.02783205173909664,0.004150393418967724,0.0025024432688951492,0.9995734691619873,-0.06640627235174179,-0.5351564288139343,9.718753814697266,0.0,0.0,0.0
9409,-0.02783205173909664,0.004150393418967724,0.0025024432688951492,0.9995734691619873,-0.07812502980232239,-0.5273439288139343,9.707035064697266,0.0,0.0,0.0
9428,-0.02783205173909664,0.004150393418967724,0.0025024432688951492,0.9995734691619873,-0.07812502980232239,-0.5273439288139343,9.707035064697266,0.0,0.0,0.0
9444,-0.02783205173909664,0.004150393418967724,0.0025024432688951492,0.9995734691619873,-0.08593752980232239,-0.5273439288139343,9.703128814697266,0.0,0.0,0.0
9479,-0.02783205173909664,0.004150393418967724,0.0025024432688951492,0.9995734691619873,-0.08593752980232239,-0.5273439288139343,9.703128814697266,0.0,0.0,0.0
9493,-0.02783205173909664,0.004150393418967724,0.0025024432688951492,0.9995734691619873,-0.08593752980232239,-0.5273439288139343,9.703128814697266,0.0,0.0,0.0
9511,-0.02783205173909664,0.004150393418967724,0.0025024432688951492,0.9995734691619873,-0.08593752980232239,-0.5273439288139343,9.703128814697266,0.0,0.0,0.0
9531,-0.02783205173909664,0.004150393418967724,0.0025024432688951492,0.9995734691619873,-0.08593752980232239,-0.5273439288139343,9.703128814697266,0.0,0.0,0.0
9546,-0.02783205173909664,0.004150393418967724,0.0025024432688951492,0.9995734691619873,-0.09765628725290298,-0.5273439288139343,9.671878814697266,0.0,0.0,0.0
9565,-0.02783205173909664,0.004150393418967724,0.0025024432688951492,0.9995734691619873,-0.09765628725290298,-0.5273439288139343,9.671878814697266,0.0,0.0,0.0
9581,-0.02783205173909664,0.004150393418967724,0.0025024432688951492,0.9995734691619873,-0.09765628725290298,-0.5273439288139343,9.671878814697266,0.0,0.0,0.0
9598,-0.02783205173909664,0.004150393418967724,0.0025024432688951492,0.9995734691619873,-0.09765628725290298,-0.5273439288139343,9.671878814697266,0.0,0.0,0.0
9619,-0.02783205173909664,0.004150393418967724,0.0025024432688951492,0.9995734691619873,-0.09765628725290298,-0.5273439288139343,9.671878814697266,0.0,0.0,0.0
9636,-0.02783205173909664,0.004150393418967724,0.0025024432688951492,0.9995734691619873,-0.09765628725290298,-0.5273439288139343,9.671878814697266,0.0,0.0,0.0
9653,-0.02783205173909664,0.004150393418967724,0.0025024432688951492,0.9995734691619873,-0.05859377235174179,-0.5468751788139343,9.730472564697266,0.0,0.0,0.0
9670,-0.02783205173909664,0.004150393418967724,0.0025024432688951492,0.9995734691619873,-0.05859377235174179,-0.5468751788139343,9.730472564697266,0.0,0.0,0.0
9687,-0.02783205173909664,0.004150393418967724,0.0025024432688951492,0.9995734691619873,-0.08593752980232239,-0.5664064288139343,9.687503814697266,0.0,0.0,0.0
9720,-0.02783205173909664,0.004150393418967724,0.0025024432688951492,0.9995734691619873,-0.08593752980232239,-0.5664064288139343,9.687503814697266,0.0,0.0,0.0
9737,-0.02783205173909664,0.004150393418967724,0.0025024432688951492,0.9995734691619873,-0.07812502980232239,-0.5351564288139343,9.714847564697266,0.0,0.0,0.0
9755,-0.02783205173909664,0.004150393418967724,0.0025024432688951492,0.9995734691619873,-0.07812502980232239,-0.5351564288139343,9.714847564697266,0.0,0.0,0.0
9771,-0.02770998142659664,0.004333499353379011,0.0025024432688951492,0.9995734691619873,-0.07812502980232239,-0.5351564288139343,9.714847564697266,0.0,0.0,0.0
9789,-0.02770998142659664,0.004333499353379011,0.0025024432688951492,0.9995734691619873,-0.07812502980232239,-0.5351564288139343,9.714847564697266,0.0,0.0,0.0
9804,-0.02770998142659664,0.004333499353379011,0.0025024432688951492,0.9995734691619873,-0.07812502980232239,-0.5351564288139343,9.714847564697266,0.0,0.0,0.0
9823,-0.02770998142659664,0.004333499353379011,0.0025024432688951492,0.9995734691619873,-0.07812502980232239,-0.5351564288139343,9.714847564697266,0.0,0.0,0.0
9839,-0.02770998142659664,0.004333499353379011,0.0025024432688951492,0.9995734691619873,-0.07812502980232239,-0.5351564288139343,9.714847564697266,0.0,0.0,0.0
9862,-0.02770998142659664,0.004333499353379011,0.0025024432688951492,0.9995734691619873,-0.07812502980232239,-0.5351564288139343,9.714847564697266,0.0,0.0,0.0
9877,-0.02770998142659664,0.004333499353379011,0.0025024432688951492,0.9995734691619873,-0.07812502980232239,-0.5468751788139343,9.691410064697266,0.0,0.0,0.0
9895,-0.02770998142659664,0.004333499353379011,0.0025024432688951492,0.9995734691619873,-0.10546878725290298,-0.5351564288139343,9.738285064697266,0.0,0.0,0.0
9911,-0.02770998142659664,0.004333499353379011,0.0025024432688951492,0.9995734691619873,-0.07812502980232239,-0.5664064288139343,9.691410064697266,0.0,0.0,0.0
9929,-0.02783205173909664,0.004211428575217724,0.0025024432688951492,0.9995734691619873,-0.07812502980232239,-0.5664064288139343,9.691410064697266,0.0,0.0,0.0
9948,-0.02783205173909664,0.004211428575217724,0.0025024432688951492,0.9995734691619873,-0.046875014901161194,-0.5546876788139343,9.726566314697266,0.0,0.0,0.0
9970,-0.02783205173909664,0.004211428575217724,0.0025024432688951492,0.9995734691619873,-0.09765628725290298,-0.5546876788139343,9.671878814697266,0.0,0.0,0.0
9986,-0.02783205173909664,0.004211428575217724,0.0025024432688951492,0.9995734691619873,-0.10546878725290298,-0.5351564288139343,9.714847564697266,0.0,0.0,0.0
10008,-0.02783205173909664,0.004211428575217724,0.0025024432688951492,0.9995734691619873,-0.08593752980232239,-0.5351564288139343,9.707035064697266,0.0,0.0,0.0
10044,-0.02783205173909664,0.004211428575217724,0.0025024432688951492,0.9995734691619873,-0.08593752980232239,-0.5351564288139343,9.707035064697266,0.0,0.0,0.0
10060,-0.02783205173909664,0.004211428575217724,0.0025024432688951492,0.9995734691619873,-0.07812502980232239,-0.5468751788139343,9.691410064697266,0.0,0.0,0.0
10082,-0.02783205173909664,0.004211428575217724,0.0025024432688951492,0.9995734691619873,-0.06640627235174179,-0.5742189288139343,9.734378814697266,0.0,0.0,0.0
10098,-0.02783205173909664,0.004211428575217724,0.0025024432688951492,0.9995734691619873,-0.06640627235174179,-0.5742189288139343,9.734378814697266,0.0,0.0,0.0
10117,-0.02783205173909664,0.004211428575217724,0.0025024432688951492,0.9995734691619873,-0.06640627235174179,-0.5742189288139343,9.734378814697266,0.0,0.0,0.0
10132,-0.02783205173909664,0.004211428575217724,0.0025024432688951492,0.9995734691619873,-0.06640627235174179,-0.5742189288139343,9.734378814697266,0.0,0.0,0.0
10152,-0.02783205173909664,0.004211428575217724,0.0025024432688951492,0.9995734691619873,-0.06640627235174179,-0.5742189288139343,9.734378814697266,0.0,0.0,0.0
10169,-0.02783205173909664,0.004211428575217724,0.0025024432688951492,0.9995734691619873,-0.09765628725290298,-0.5468751788139343,9.726566314697266,0.0,0.0,0.0
10187,-0.02783205173909664,0.004211428575217724,0.0025024432688951492,0.9995734691619873,-0.06640627235174179,-0.5468751788139343,9.703128814697266,0.0,0.0,0.0
10203,-0.02783205173909664,0.004211428575217724,0.0025024432688951492,0.9995734691619873,-0.08593752980232239,-0.5156251788139343,9.703128814697266,0.0,0.0,0.0
10221,-0.02783205173909664,0.004211428575217724,0.0025024432688951492,0.9995734691619873,-0.06640627235174179,-0.5156251788139343,9.679691314697266,0.0,0.0,0.0
10240,-0.02783205173909664,0.004211428575217724,0.0025024432688951492,0.9995734691619873,-0.06640627235174179,-0.5351564288139343,9.738285064697266,0.0,0.0,0.0
10256,-0.02783205173909664,0.004211428575217724,0.0025024432688951492,0.9995734691619873,-0.06640627235174179,-0.5742189288139343,9.679691314697266,0.0,0.0,0.0
10291,-0.02783205173909664,0.004211428575217724,0.0025024432688951492,0.9995734691619873,-0.06640627235174179,-0.5742189288139343,9.679691314697266,0.0,0.0,0.0
10311,-0.02783205173909664,0.004211428575217724,0.0025024432688951492,0.9995734691619873,-0.06640627235174179,-0.5742189288139343,9.679691314697266,0.0,0.0,0.0
10327,-0.02801515720784664,0.004028323106467724,0.0025024432688951492,0.9995734691619873,-0.06640627235174179,-0.5742189288139343,9.679691314697266,0.0,0.0,0.0
10346,-0.02801515720784664,0.004028323106467724,0.0025024432688951492,0.9995734691619873,-0.08593752980232239,-0.5351564288139343,9.722660064697266,0.0,0.0,0.0
10361,-0.02801515720784664,0.004028323106467724,0.0025024432688951492,0.9995734691619873,-0.08593752980232239,-0.5546876788139343,9.718753814697266,0.0,0.0,0.0
10380,-0.02801515720784664,0.004028323106467724,0.0025024432688951492,0.9995734691619873,-0.09765628725290298,-0.5273439288139343,9.691410064697266,0.0,0.0,0.0
10407,-0.02801515720784664,0.004028323106467724,0.0025024432688951492,0.9995734691619873,-0.12500004470348358,-0.5468751788139343,9.687503814697266,0.0,0.0,0.0
10422,-0.02801515720784664,0.004028323106467724,0.0025024432688951492,0.9995734691619873,-0.046875014901161194,-0.5859377384185791,9.687503814697266,0.0,0.0,0.0
10440,-0.02801515720784664,0.004028323106467724,0.0025024432688951492,0.9995734691619873,-0.09765628725290298,-0.5273439288139343,9.703128814697266,0.0,0.0,0.0
10456,-0.02801515720784664,0.004028323106467724,0.0025024432688951492,0.9995734691619873,-0.09765628725290298,-0.5273439288139343,9.703128814697266,0.0,0.0,0.0
10474,-0.02801515720784664,0.004028323106467724,0.0025024432688951492,0.9995734691619873,-0.06640627235174179,-0.5546876788139343,9.726566314697266,0.0,0.0,0.0
10489,-0.02801515720784664,0.004028323106467724,0.0025024432688951492,0.9995734691619873,-0.06640627235174179,-0.5546876788139343,9.726566314697266,0.0,0.0,0.0
10508,-0.02795412205159664,0.004028323106467724,0.0025024432688951492,0.9995734691619873,-0.06640627235174179,-0.5546876788139343,9.726566314697266,0.0,0.0,0.0
10543,-0.02795412205159664,0.004028323106467724,0.0025024432688951492,0.9995734691619873,-0.06640627235174179,-0.5546876788139343,9.726566314697266,0.0,0.0,0.0
10561,-0.02795412205159664,0.004028323106467724,0.0025024432688951492,0.9995734691619873,-0.06640627235174179,-0.5546876788139343,9.726566314697266,0.0,0.0,0.0
10588,-0.02795412205159664,0.004028323106467724,0.0025024432688951492,0.9995734691619873,-0.039062514901161194,-0.5468751788139343,9.718753814697266,0.0,0.0,0.0
10603,-0.02795412205159664,0.004028323106467724,0.0025024432688951492,0.9995734691619873,-0.039062514901161194,-0.5468751788139343,9.718753814697266,0.0,0.0,0.0
10621,-0.02795412205159664,0.004028323106467724,0.0025024432688951492,0.9995734691619873,-0.039062514901161194,-0.5468751788139343,9.718753814697266,0.0,0.0,0.0
10658,-0.02795412205159664,0.004028323106467724,0.0025024432688951492,0.9995734691619873,-0.039062514901161194,-0.5468751788139343,9.718753814697266,0.0,0.0,0.0
10674,-0.02795412205159664,0.004028323106467724,0.0025024432688951492,0.9995734691619873,-0.08593752980232239,-0.5078126788139343,9.714847564697266,0.0,0.0,0.0
10696,-0.02795412205159664,0.004028323106467724,0.0025024432688951492,0.9995734691619873,-0.09765628725290298,-0.5156251788139343,9.718753814697266,0.0,0.0,0.0
10715,-0.02795412205159664,0.004028323106467724,0.0025024432688951492,0.9995734691619873,-0.09765628725290298,-0.5156251788139343,9.718753814697266,0.0,0.0,0.0
10737,-0.02795412205159664,0.004028323106467724,0.0025024432688951492,0.9995734691619873,-0.08593752980232239,-0.5546876788139343,9.714847564697266,0.0,0.0,0.0
10753,-0.02795412205159664,0.004028323106467724,0.0025024432688951492,0.9995734691619873,-0.09765628725290298,-0.5351564288139343,9.722660064697266,0.0,0.0,0.0
10775,-0.02795412205159664,0.004028323106467724,0.0025024432688951492,0.9995734691619873,-0.08593752980232239,-0.5546876788139343,9.718753814697266,0.0,0.0,0.0
10790,-0.02795412205159664,0.004028323106467724,0.0025024432688951492,0.9995734691619873,-0.08593752980232239,-0.5546876788139343,9.718753814697266,0.0,0.0,0.0
10812,-0.02795412205159664,0.004028323106467724,0.0025024432688951492,0.9995734691619873,-0.08593752980232239,-0.5546876788139343,9.718753814697266,0.0,0.0,0.0
10827,-0.02795412205159664,0.004028323106467724,0.0025024432688951492,0.9995734691619873,-0.08593752980232239,-0.5156251788139343,9.703128814697266,0.0,0.0,0.0
10846,-0.02795412205159664,0.004028323106467724,0.0025024432688951492,0.9995734691619873,-0.05859377235174179,-0.5546876788139343,9.726566314697266,0.0,0.0,0.0
10861,-0.02795412205159664,0.004028323106467724,0.0025024432688951492,0.9995734691619873,-0.08593752980232239,-0.5546876788139343,9.718753814697266,0.0,0.0,0.0
10877,-0.02789308689534664,0.004211428575217724,0.0025024432688951492,0.9995734691619873,-0.08593752980232239,-0.5546876788139343,9.718753814697266,0.0,0.0,0.0
10895,-0.02789308689534664,0.004211428575217724,0.0025024432688951492,0.9995734691619873,-0.10546878725290298,-0.5742189288139343,9.710941314697266,0.0,0.0,0.0
10911,-0.02789308689534664,0.004211428575217724,0.0025024432688951492,0.9995734691619873,-0.08593752980232239,-0.5664064288139343,9.734378814697266,0.0,0.0,0.0
10928,-0.02789308689534664,0.004211428575217724,0.0025024432688951492,0.9995734691619873,-0.08593752980232239,-0.5664064288139343,9.734378814697266,0.0,0.0,0.0
10946,-0.02789308689534664,0.004211428575217724,0.0025024432688951492,0.9995734691619873,-0.046875014901161194,-0.5546876788139343,9.687503814697266,0.0,0.0,0.0
10961,-0.02789308689534664,0.004211428575217724,0.0025024432688951492,0.9995734691619873,-0.046875014901161194,-0.5546876788139343,9.687503814697266,0.0,0.0,0.0
10980,-0.02789308689534664,0.004211428575217724,0.0025024432688951492,0.9995734691619873,-0.12500004470348358,-0.5351564288139343,9.675785064697266,0.0,0.0,0.0
10995,-0.02789308689534664,0.004211428575217724,0.0025024432688951492,0.9995734691619873,-0.12500004470348358,-0.5351564288139343,9.675785064697266,0.0,0.0,0.0
11014,-0.02789308689534664,0.004211428575217724,0.0025024432688951492,0.9995734691619873,-0.09765628725290298,-0.5351564288139343,9.722660064697266,0.0,0.0,0.0
11029,-0.02789308689534664,0.004211428575217724,0.0025024432688951492,0.9995734691619873,-0.09765628725290298,-0.5351564288139343,9.722660064697266,0.0,0.0,0.0
11047,-0.02789308689534664,0.004211428575217724,0.0025024432688951492,0.9995734691619873,-0.08593752980232239,-0.5546876788139343,9.718753814697266,0.0,0.0,0.0
11082,-0.02789308689534664,0.004211428575217724,0.0025024432688951492,0.9995734691619873,-0.08593752980232239,-0.5546876788139343,9.718753814697266,0.0,0.0,0.0
11117,-0.02789308689534664,0.004211428575217724,0.0025024432688951492,0.9995734691619873,-0.08593752980232239,-0.5546876788139343,9.718753814697266,0.0,0.0,0.0
11136,-0.02789308689534664,0.004211428575217724,0.0025024432688951492,0.9995734691619873,-0.08593752980232239,-0.5546876788139343,9.718753814697266,0.0,0.0,0.0
11158,-0.02789308689534664,0.004211428575217724,0.0025024432688951492,0.9995734691619873,-0.09765628725290298,-0.5078126788139343,9.671878814697266,0.0,0.0,0.0
11173,-0.02789308689534664,0.004211428575217724,0.0025024432688951492,0.9995734691619873,-0.09765628725290298,-0.5078126788139343,9.671878814697266,0.0,0.0,0.0
11192,-0.02789308689534664,0.004272464197129011,0.0025024432688951492,0.9995734691619873,-0.09765628725290298,-0.5078126788139343,9.671878814697266,0.0,0.0,0.0
11207,-0.02789308689534664,0.004272464197129011,0.0025024432688951492,0.9995734691619873,-0.09765628725290298,-0.5468751788139343,9.722660064697266,0.0,0.0,0.0
11226,-0.02789308689534664,0.004272464197129011,0.0025024432688951492,0.9995734691619873,-0.05859377235174179,-0.5468751788139343,9.691410064697266,0.0,0.0,0.0
11245,-0.02789308689534664,0.004272464197129011,0.0025024432688951492,0.9995734691619873,-0.07812502980232239,-0.4960939288139343,9.691410064697266,0.0,0.0,0.0
11258,-0.02789308689534664,0.004272464197129011,0.0025024432688951492,0.9995734691619873,-0.08593752980232239,-0.5468751788139343,9.707035064697266,0.0,0.0,0.0
11277,-0.02789308689534664,0.004272464197129011,0.0025024432688951492,0.9995734691619873,-0.11328128725290298,-0.5273439288139343,9.707035064697266,0.0,0.0,0.0
11297,-0.02789308689534664,0.004272464197129011,0.0025024432688951492,0.9995734691619873,-0.11328128725290298,-0.5273439288139343,9.707035064697266,0.0,0.0,0.0
11314,-0.02789308689534664,0.004272464197129011,0.0025024432688951492,0.9995734691619873,-0.11328128725290298,-0.5273439288139343,9.707035064697266,0.0,0.0,0.0
11331,-0.02789308689534664,0.004272464197129011,0.0025024432688951492,0.9995734691619873,-0.05859377235174179,-0.5468751788139343,9.703128814697266,0.0,0.0,0.0
11347,-0.02789308689534664,0.004272464197129011,0.0025024432688951492,0.9995734691619873,-0.09765628725290298,-0.5546876788139343,9.738285064697266,0.0,0.0,0.0
11365,-0.02789308689534664,0.004272464197129011,0.0025024432688951492,0.9995734691619873,-0.07812502980232239,-0.5468751788139343,9.738285064697266,0.0,0.0,0.0
11399,-0.02789308689534664,0.004272464197129011,0.0025024432688951492,0.9995734691619873,-0.07812502980232239,-0.5468751788139343,9.738285064697266,0.0,0.0,0.0
11413,-0.02789308689534664,0.004272464197129011,0.0025024432688951492,0.9995734691619873,-0.10546878725290298,-0.5273439288139343,9.710941314697266,0.0,0.0,0.0
11431,-0.02789308689534664,0.004272464197129011,0.0025024432688951492,0.9995734691619873,-0.10546878725290298,-0.5273439288139343,9.710941314697266,0.0,0.0,0.0
11447,-0.02789308689534664,0.004272464197129011,0.0025024432688951492,0.9995734691619873,-0.10546878725290298,-0.5273439288139343,9.710941314697266,0.0,0.0,0.0
11465,-0.02789308689534664,0.004272464197129011,0.0025024432688951492,0.9995734691619873,-0.10546878725290298,-0.5273439288139343,9.710941314697266,0.0,0.0,0.0
11485,-0.02789308689534664,0.004272464197129011,0.0025024432688951492,0.9995734691619873,-0.10546878725290298,-0.5273439288139343,9.710941314697266,0.0,0.0,0.0
11501,-0.02789308689534664,0.004272464197129011,0.0025024432688951492,0.9995734691619873,-0.10546878725290298,-0.5273439288139343,9.710941314697266,0.0,0.0,0.0
11520,-0.02789308689534664,0.004272464197129011,0.0025024432688951492,0.9995734691619873,-0.05859377235174179,-0.5664064288139343,9.753910064697266,0.0,0.0,0.0
11535,-0.02789308689534664,0.004272464197129011,0.0025024432688951492,0.9995734691619873,-0.05859377235174179,-0.5664064288139343,9.753910064697266,0.0,0.0,0.0
11553,-0.02789308689534664,0.004272464197129011,0.0025024432688951492,0.9995734691619873,-0.05859377235174179,-0.5468751788139343,9.730472564697266,0.0,0.0,0.0
11569,-0.02789308689534664,0.004272464197129011,0.0025024432688951492,0.9995734691619873,-0.05859377235174179,-0.5468751788139343,9.730472564697266,0.0,0.0,0.0
11587,-0.02789308689534664,0.004272464197129011,0.0025024432688951492,0.9995734691619873,-0.05859377235174179,-0.5468751788139343,9.730472564697266,0.0,0.0,0.0
11622,-0.02789308689534664,0.004272464197129011,0.0025024432688951492,0.9995734691619873,-0.05859377235174179,-0.5468751788139343,9.730472564697266,0.0,0.0,0.0
11639,-0.02789308689534664,0.004272464197129011,0.0025024432688951492,0.9995734691619873,-0.05859377235174179,-0.5468751788139343,9.730472564697266,0.0,0.0,0.0
11662,-0.02789308689534664,0.004272464197129011,0.0025024432688951492,0.9995734691619873,-0.05859377235174179,-0.5468751788139343,9.730472564697266,0.0,0.0,0.0
11696,-0.02789308689534664,0.004272464197129011,0.0025024432688951492,0.9995734691619873,-0.05859377235174179,-0.5468751788139343,9.730472564697266,0.0,0.0,0.0
11715,-0.02789308689534664,0.004272464197129011,0.0025024432688951492,0.9995734691619873,-0.05859377235174179,-0.5468751788139343,9.730472564697266,0.0,0.0,0.0
11738,-0.02789308689534664,0.004272464197129011,0.0025024432688951492,0.9995734691619873,-0.07812502980232239,-0.5351564288139343,9.703128814697266,0.0,0.0,0.0
11753,-0.02789308689534664,0.004272464197129011,0.0025024432688951492,0.9995734691619873,-0.10546878725290298,-0.5468751788139343,9.718753814697266,0.0,0.0,0.0
11776,-0.02789308689534664,0.004272464197129011,0.0025024432688951492,0.9995734691619873,-0.06640627235174179,-0.5664064288139343,9.703128814697266,0.0,0.0,0.0
11810,-0.02789308689534664,0.004272464197129011,0.0025024432688951492,0.9995734691619873,-0.06640627235174179,-0.5664064288139343,9.703128814697266,0.0,0.0,0.0
11829,-0.02789308689534664,0.004272464197129011,0.0025024432688951492,0.9995734691619873,-0.06640627235174179,-0.5664064288139343,9.703128814697266,0.0,0.0,0.0
11851,-0.02789308689534664,0.004272464197129011,0.0025024432688951492,0.9995734691619873,-0.08593752980232239,-0.5351564288139343,9.687503814697266,0.0,0.0,0.0
11867,-0.02789308689534664,0.004272464197129011,0.0025024432688951492,0.9995734691619873,-0.07812502980232239,-0.5078126788139343,9.707035064697266,0.0,0.0,0.0
11889,-0.02789308689534664,0.004272464197129011,0.0025024432688951492,0.9995734691619873,-0.06640627235174179,-0.5351564288139343,9.703128814697266,0.0,0.0,0.0
11925,-0.02789308689534664,0.004272464197129011,0.0025024432688951492,0.9995734691619873,-0.06640627235174179,-0.5351564288139343,9.703128814697266,0.0,0.0,0.0
11940,-0.02789308689534664,0.004272464197129011,0.0025024432688951492,0.9995734691619873,-0.09765628725290298,-0.5156251788139343,9.691410064697266,0.0,0.0,0.0
11963,-0.02789308689534664,0.004272464197129011,0.0025024432688951492,0.9995734691619873,-0.06640627235174179,-0.5351564288139343,9.703128814697266,0.0,0.0,0.0
11978,-0.02789308689534664,0.004272464197129011,0.0025024432688951492,0.9995734691619873,-0.06640627235174179,-0.5351564288139343,9.703128814697266,0.0,0.0,0.0
12000,-0.02789308689534664,0.004272464197129011,0.0025024432688951492,0.9995734691619873,-0.06640627235174179,-0.5351564288139343,9.703128814697266,0.0,0.0,0.0
12014,-0.02789308689534664,0.004272464197129011,0.0025024432688951492,0.9995734691619873,-0.06640627235174179,-0.5351564288139343,9.703128814697266,0.0,0.0,0.0
12033,-0.02789308689534664,0.004272464197129011,0.0025024432688951492,0.9995734691619873,-0.08593752980232239,-0.5351564288139343,9.710941314697266,0.0,0.0,0.0
12053,-0.02789308689534664,0.004272464197129011,0.0025024432688951492,0.9995734691619873,-0.08593752980232239,-0.5468751788139343,9.707035064697266,0.0,0.0,0.0
12087,-0.02789308689534664,0.004272464197129011,0.0025024432688951492,0.9995734691619873,-0.08593752980232239,-0.5468751788139343,9.707035064697266,0.0,0.0,0.0
12101,-0.02789308689534664,0.004272464197129011,0.0025024432688951492,0.9995734691619873,-0.08593752980232239,-0.5468751788139343,9.707035064697266,0.0,0.0,0.0
12120,-0.02789308689534664,0.004272464197129011,0.0025024432688951492,0.9995734691619873,-0.08593752980232239,-0.5468751788139343,9.707035064697266,0.0,0.0,0.0
12135,-0.02789308689534664,0.004272464197129011,0.0025024432688951492,0.9995734691619873,-0.08593752980232239,-0.5468751788139343,9.707035064697266,0.0,0.0,0.0
12153,-0.02789308689534664,0.004272464197129011,0.0025024432688951492,0.9995734691619873,-0.08593752980232239,-0.5468751788139343,9.707035064697266,0.0,0.0,0.0
12169,-0.02789308689534664,0.004272464197129011,0.0025024432688951492,0.9995734691619873,-0.08593752980232239,-0.5468751788139343,9.707035064697266,0.0,0.0,0.0
12188,-0.02789308689534664,0.004272464197129011,0.0025024432688951492,0.9995734691619873,-0.07812502980232239,-0.5742189288139343,9.710941314697266,0.0,0.0,0.0
12204,-0.02789308689534664,0.004272464197129011,0.0025024432688951492,0.9995734691619873,-0.06640627235174179,-0.5859377384185791,9.679691314697266,0.0,0.0,0.0
12226,-0.02789308689534664,0.004272464197129011,0.0025024432688951492,0.9995734691619873,-0.06640627235174179,-0.5351564288139343,9.730472564697266,0.0,0.0,0.0
12244,-0.02789308689534664,0.004272464197129011,0.0025024432688951492,0.9995734691619873,-0.06640627235174179,-0.5351564288139343,9.730472564697266,0.0,0.0,0.0
12267,-0.02789308689534664,0.004272464197129011,0.0025024432688951492,0.9995734691619873,-0.07812502980232239,-0.5351564288139343,9.718753814697266,0.0,0.0,0.0
12282,-0.02789308689534664,0.004272464197129011,0.0025024432688951492,0.9995734691619873,-0.08593752980232239,-0.5742189288139343,9.691410064697266,0.0,0.0,0.0
12305,-0.02789308689534664,0.004272464197129011,0.0025024432688951492,0.9995734691619873,-0.06640627235174179,-0.5546876788139343,9.687503814697266,0.0,0.0,0.0
12323,-0.02789308689534664,0.004272464197129011,0.0025024432688951492,0.9995734691619873,-0.07812502980232239,-0.5468751788139343,9.691410064697266,0.0,0.0,0.0
12346,-0.02789308689534664,0.004272464197129011,0.0025024432688951492,0.9995734691619873,-0.06640627235174179,-0.5156251788139343,9.707035064697266,0.0,0.0,0.0
12381,-0.02789308689534664,0.004272464197129011,0.0025024432688951492,0.9995734691619873,-0.10546878725290298,-0.5546876788139343,9.734378814697266,0.0,0.0,0.0
12396,-0.02789308689534664,0.004272464197129011,0.0025024432688951492,0.9995734691619873,-0.11328128725290298,-0.5273439288139343,9.679691314697266,0.0,0.0,0.0
12414,-0.02789308689534664,0.004272464197129011,0.0025024432688951492,0.9995734691619873,-0.07812502980232239,-0.5351564288139343,9.683597564697266,0.0,0.0,0.0
12431,-0.02789308689534664,0.004272464197129011,0.0025024432688951492,0.9995734691619873,-0.09765628725290298,-0.5546876788139343,9.718753814697266,0.0,0.0,0.0
12449,-0.02789308689534664,0.004272464197129011,0.0025024432688951492,0.9995734691619873,-0.08593752980232239,-0.5664064288139343,9.687503814697266,0.0,0.0,0.0
12465,-0.02789308689534664,0.004272464197129011,0.0025024432688951492,0.9995734691619873,-0.06640627235174179,-0.5351564288139343,9.718753814697266,0.0,0.0,0.0
12483,-0.02789308689534664,0.004272464197129011,0.0025024432688951492,0.9995734691619873,-0.06640627235174179,-0.5351564288139343,9.718753814697266,0.0,0.0,0.0
12502,-0.02789308689534664,0.004272464197129011,0.0025024432688951492,0.9995734691619873,-0.08593752980232239,-0.5664064288139343,9.707035064697266,0.0,0.0,0.0
12524,-0.02789308689534664,0.004272464197129011,0.0025024432688951492,0.9995734691619873,-0.05859377235174179,-0.5664064288139343,9.703128814697266,0.0,0.0,0.0
12539,-0.02789308689534664,0.004272464197129011,0.0025024432688951492,0.9995734691619873,-0.05859377235174179,-0.5351564288139343,9.730472564697266,0.0,0.0,0.0
12558,-0.02789308689534664,0.004272464197129011,0.0025024432688951492,0.9995734691619873,-0.08593752980232239,-0.5468751788139343,9.707035064697266,0.0,0.0,0.0
12574,-0.02789308689534664,0.004272464197129011,0.0025024432688951492,0.9995734691619873,-0.08593752980232239,-0.5468751788139343,9.707035064697266,0.0,0.0,0.0
12593,-0.02789308689534664,0.004272464197129011,0.0025024432688951492,0.9995734691619873,-0.07812502980232239,-0.5156251788139343,9.722660064697266,0.0,0.0,0.0
12608,-0.02789308689534664,0.004272464197129011,0.0025024432688951492,0.9995734691619873,-0.10546878725290298,-0.5351564288139343,9.714847564697266,0.0,0.0,0.0
12626,-0.02789308689534664,0.004272464197129011,0.0025024432688951492,0.9995734691619873,-0.12500004470348358,-0.4882814288139343,9.691410064697266,0.0,0.0,0.0
12661,-0.02789308689534664,0.004272464197129011,0.0025024432688951492,0.9995734691619873,-0.12500004470348358,-0.4882814288139343,9.691410064697266,0.0,0.0,0.0
12696,-0.02789308689534664,0.004272464197129011,0.0025024432688951492,0.9995734691619873,-0.12500004470348358,-0.4882814288139343,9.691410064697266,0.0,0.0,0.0
12715,-0.02789308689534664,0.004272464197129011,0.0025024432688951492,0.9995734691619873,-0.12500004470348358,-0.4882814288139343,9.691410064697266,0.0,0.0,0.0
12737,-0.02789308689534664,0.004272464197129011,0.0025024432688951492,0.9995734691619873,-0.09765628725290298,-0.5546876788139343,9.691410064697266,0.0,0.0,0.0
12752,-0.02789308689534664,0.004272464197129011,0.0025024432688951492,0.9995734691619873,-0.05859377235174179,-0.5546876788139343,9.722660064697266,0.0,0.0,0.0
12775,-0.02789308689534664,0.004272464197129011,0.0025024432688951492,0.9995734691619873,-0.06640627235174179,-0.5859377384185791,9.710941314697266,0.0,0.0,0.0
12790,-0.02789308689534664,0.004272464197129011,0.0025024432688951492,0.9995734691619873,-0.06640627235174179,-0.5859377384185791,9.710941314697266,0.0,0.0,0.0
12810,-0.02789308689534664,0.004272464197129011,0.0025024432688951492,0.9995734691619873,-0.06640627235174179,-0.5859377384185791,9.710941314697266,0.0,0.0,0.0
12828,-0.02789308689534664,0.004272464197129011,0.0025024432688951492,0.9995734691619873,-0.06640627235174179,-0.5859377384185791,9.710941314697266,0.0,0.0,0.0
12851,-0.02789308689534664,0.004272464197129011,0.0025024432688951492,0.9995734691619873,-0.12500004470348358,-0.5273439288139343,9.730472564697266,0.0,0.0,0.0
12866,-0.02789308689534664,0.004272464197129011,0.0025024432688951492,0.9995734691619873,-0.10546878725290298,-0.5351564288139343,9.691410064697266,0.0,0.0,0.0
12889,-0.02789308689534664,0.004272464197129011,0.0025024432688951492,0.9995734691619873,-0.07812502980232239,-0.5351564288139343,9.753910064697266,0.0,0.0,0.0
12908,-0.02789308689534664,0.004272464197129011,0.0025024432688951492,0.9995734691619873,-0.07812502980232239,-0.5351564288139343,9.753910064697266,0.0,0.0,0.0
12923,-0.02789308689534664,0.004272464197129011,0.0025024432688951492,0.9995734691619873,-0.12500004470348358,-0.5156251788139343,9.718753814697266,0.0,0.0,0.0
12958,-0.02789308689534664,0.004272464197129011,0.0025024432688951492,0.9995734691619873,-0.12500004470348358,-0.5156251788139343,9.718753814697266,0.0,0.0,0.0
12979,-0.02789308689534664,0.004272464197129011,0.0025024432688951492,0.9995734691619873,-0.12500004470348358,-0.5156251788139343,9.718753814697266,0.0,0.0,0.0
12995,-0.02777101658284664,0.004211428575217724,0.0025024432688951492,0.9995734691619873,-0.12500004470348358,-0.5156251788139343,9.718753814697266,0.0,0.0,0.0
13014,-0.02777101658284664,0.004211428575217724,0.0025024432688951492,0.9995734691619873,-0.07812502980232239,-0.5468751788139343,9.851566314697266,0.0,0.0,0.0
13029,-0.02777101658284664,0.004211428575217724,0.0025024432688951492,0.9995734691619873,-0.07812502980232239,-0.5468751788139343,9.851566314697266,-0.001953126396983862,0.003906252793967724,-0.001953126396983862
13047,-0.02789308689534664,0.004211428575217724,0.0025634784251451492,0.9995734691619873,-0.07812502980232239,-0.5468751788139343,9.851566314697266,-0.001953126396983862,0.003906252793967724,-0.001953126396983862
13066,-0.02789308689534664,0.004211428575217724,0.0025634784251451492,0.9995734691619873,-0.10546878725290298,-0.5078126788139343,9.734378814697266,-0.001953126396983862,0.003906252793967724,-0.001953126396983862
13082,-0.02789308689534664,0.004211428575217724,0.0025634784251451492,0.9995734691619873,-0.06640627235174179,-0.5156251788139343,9.726566314697266,-0.001953126396983862,0.003906252793967724,-0.001953126396983862
13117,-0.02789308689534664,0.004211428575217724,0.0025634784251451492,0.9995734691619873,-0.06640627235174179,-0.5156251788139343,9.726566314697266,-0.001953126396983862,0.003906252793967724,-0.013671884313225746
13151,-0.02789308689534664,0.004211428575217724,0.0025634784251451492,0.9995734691619873,-0.06640627235174179,-0.5156251788139343,9.726566314697266,-0.003906252793967724,0.011718758381903172,-0.005859379190951586
13169,-0.02789308689534664,0.004211428575217724,0.0025634784251451492,0.9995734691619873,-0.06640627235174179,-0.5156251788139343,9.726566314697266,0.001953126396983862,0.0,-0.009765632450580597
13184,-0.02789308689534664,0.004211428575217724,0.0025634784251451492,0.9995734691619873,-0.05859377235174179,-0.5859377384185791,9.734378814697266,0.001953126396983862,0.0,-0.009765632450580597
13207,-0.02789308689534664,0.004211428575217724,0.0025634784251451492,0.9995734691619873,-0.05859377235174179,-0.5859377384185791,9.734378814697266,-0.015625011175870895,0.001953126396983862,0.001953126396983862
13221,-0.02789308689534664,0.004211428575217724,0.0025634784251451492,0.9995734691619873,-0.05859377235174179,-0.5859377384185791,9.734378814697266,0.007812505587935448,0.007812505587935448,0.023437516763806343
13255,-0.02819826267659664,0.004394534509629011,0.002868654439225793,0.9995734691619873,-0.05859377235174179,-0.5859377384185791,9.734378814697266,0.007812505587935448,0.007812505587935448,0.023437516763806343
13272,-0.02819826267659664,0.004394534509629011,0.002868654439225793,0.9995734691619873,-0.10546878725290298,-0.5742189288139343,9.710941314697266,0.007812505587935448,0.007812505587935448,0.023437516763806343
13289,-0.02813722752034664,0.004394534509629011,0.002868654439225793,0.9995734691619873,-0.10546878725290298,-0.5742189288139343,9.710941314697266,0.007812505587935448,0.007812505587935448,0.023437516763806343
13306,-0.02813722752034664,0.004394534509629011,0.002868654439225793,0.9995734691619873,-0.10546878725290298,-0.5742189288139343,9.710941314697266,-0.011718758381903172,0.0,-0.005859379190951586
13323,-0.02813722752034664,0.004394534509629011,0.002868654439225793,0.9995734691619873,-0.10546878725290298,-0.5742189288139343,9.710941314697266,-0.005859379190951586,0.0,-0.001953126396983862
13340,-0.02813722752034664,0.004394534509629011,0.002868654439225793,0.9995734691619873,-0.07812502980232239,-0.4960939288139343,9.730472564697266,-0.005859379190951586,0.0,-0.001953126396983862
13357,-0.02813722752034664,0.004394534509629011,0.002868654439225793,0.9995734691619873,-0.07812502980232239,-0.4960939288139343,9.730472564697266,0.0,-0.003906252793967724,-0.009765632450580597
13373,-0.02813722752034664,0.004394534509629011,0.002868654439225793,0.9995734691619873,-0.07812502980232239,-0.4960939288139343,9.730472564697266,0.003906252793967724,0.0,0.005859379190951586
13390,-0.02813722752034664,0.004394534509629011,0.002868654439225793,0.9995734691619873,-0.07812502980232239,-0.4960939288139343,9.730472564697266,-0.005859379190951586,0.0,-0.007812505587935448
13407,-0.02813722752034664,0.004394534509629011,0.002868654439225793,0.9995734691619873,-0.07812502980232239,-0.4960939288139343,9.730472564697266,0.001953126396983862,0.0,-0.001953126396983862
13428,-0.02813722752034664,0.004394534509629011,0.002868654439225793,0.9995734691619873,-0.06640627235174179,-0.5742189288139343,9.726566314697266,0.001953126396983862,0.0,-0.001953126396983862
13449,-0.02813722752034664,0.004394534509629011,0.002868654439225793,0.9995734691619873,-0.06640627235174179,-0.5742189288139343,9.726566314697266,-0.013671884313225746,0.023437516763806343,-0.005859379190951586
13533,-0.02813722752034664,0.004394534509629011,0.002868654439225793,0.9995734691619873,-0.06640627235174179,-0.5742189288139343,9.726566314697266,0.003906252793967724,-0.005859379190951586,0.005859379190951586
13566,-0.02813722752034664,0.004394534509629011,0.002868654439225793,0.9995734691619873,-0.06640627235174179,-0.5742189288139343,9.726566314697266,0.007812505587935448,-0.003906252793967724,-0.001953126396983862
13585,-0.02813722752034664,0.004394534509629011,0.002868654439225793,0.9995734691619873,-0.06640627235174179,-0.5742189288139343,9.726566314697266,-0.007812505587935448,0.009765632450580597,-0.003906252793967724
13598,-0.02813722752034664,0.004394534509629011,0.002868654439225793,0.9995734691619873,-0.06640627235174179,-0.5742189288139343,9.726566314697266,-0.001953126396983862,0.0,-0.005859379190951586
13616,-0.02813722752034664,0.004394534509629011,0.002868654439225793,0.9995734691619873,-0.06640627235174179,-0.5742189288139343,9.726566314697266,0.005859379190951586,-0.011718758381903172,-0.011718758381903172
13633,-0.02813722752034664,0.004394534509629011,0.002868654439225793,0.9995734691619873,-0.027343759313225746,-0.5351564288139343,9.566410064697266,0.005859379190951586,-0.011718758381903172,-0.011718758381903172
13649,-0.02813722752034664,0.004394534509629011,0.002868654439225793,0.9995734691619873,-0.027343759313225746,-0.5351564288139343,9.566410064697266,-0.005859379190951586,-0.007812505587935448,-0.005859379190951586
13666,-0.02813722752034664,0.004394534509629011,0.002868654439225793,0.9995734691619873,-0.05859377235174179,-0.5078126788139343,9.707035064697266,-0.005859379190951586,-0.007812505587935448,-0.005859379190951586
13690,-0.02813722752034664,0.004394534509629011,0.002868654439225793,0.9995734691619873,-0.05859377235174179,-0.5078126788139343,9.707035064697266,0.001953126396983862,-0.009765632450580597,0.007812505587935448
13725,-0.02813722752034664,0.004394534509629011,0.002868654439225793,0.9995734691619873,-0.05859377235174179,-0.5078126788139343,9.707035064697266,0.007812505587935448,-0.003906252793967724,-0.001953126396983862
13760,-0.02813722752034664,0.004394534509629011,0.002868654439225793,0.9995734691619873,-0.05859377235174179,-0.5078126788139343,9.707035064697266,-0.015625011175870895,0.0,0.0
13795,-0.02813722752034664,0.004394534509629011,0.002868654439225793,0.9995734691619873,-0.05859377235174179,-0.5078126788139343,9.707035064697266,-0.001953126396983862,0.011718758381903172,-0.009765632450580597
13830,-0.02813722752034664,0.004394534509629011,0.002868654439225793,0.9995734691619873,-0.05859377235174179,-0.5078126788139343,9.707035064697266,-0.005859379190951586,-0.001953126396983862,-0.005859379190951586
13848,-0.02813722752034664,0.004394534509629011,0.002868654439225793,0.9995734691619873,-0.05859377235174179,-0.5078126788139343,9.707035064697266,0.007812505587935448,-0.007812505587935448,-0.009765632450580597
13871,-0.02813722752034664,0.004394534509629011,0.002868654439225793,0.9995734691619873,-0.10546878725290298,-0.4609376788139343,9.601566314697266,0.007812505587935448,-0.007812505587935448,-0.009765632450580597
13886,-0.02813722752034664,0.004394534509629011,0.002868654439225793,0.9995734691619873,-0.11328128725290298,-0.4609376788139343,9.777347564697266,0.007812505587935448,-0.007812505587935448,-0.009765632450580597
13904,-0.02813722752034664,0.004394534509629011,0.002868654439225793,0.9995734691619873,-0.09765628725290298,-0.39453139901161194,9.718753814697266,0.007812505587935448,-0.007812505587935448,-0.009765632450580597
13921,-0.02813722752034664,0.004394534509629011,0.002868654439225793,0.9995734691619873,-0.09765628725290298,-0.39453139901161194,9.718753814697266,0.003906252793967724,0.015625011175870895,0.0
13939,-0.02813722752034664,0.004394534509629011,0.002868654439225793,0.9995734691619873,-0.11328128725290298,-0.36328136920928955,9.730472564697266,0.003906252793967724,0.015625011175870895,0.0
13955,-0.02813722752034664,0.004394534509629011,0.002868654439225793,0.9995734691619873,-0.11328128725290298,-0.36328136920928955,9.730472564697266,-0.001953126396983862,-0.013671884313225746,0.005859379190951586
13973,-0.02856447361409664,0.004272464197129011,0.0025024432688951492,0.9995734691619873,-0.11328128725290298,-0.36328136920928955,9.730472564697266,-0.001953126396983862,-0.013671884313225746,0.005859379190951586
13990,-0.02856447361409664,0.004272464197129011,0.0025024432688951492,0.9995734691619873,-0.06640627235174179,-0.44921889901161194,9.703128814697266,-0.001953126396983862,-0.013671884313225746,0.005859379190951586
14013,-0.02856447361409664,0.004272464197129011,0.0025024432688951492,0.9995734691619873,-0.06640627235174179,-0.44921889901161194,9.703128814697266,-0.001953126396983862,-0.007812505587935448,0.015625011175870895
14049,-0.02856447361409664,0.004272464197129011,0.0025024432688951492,0.9995734691619873,-0.06640627235174179,-0.44921889901161194,9.703128814697266,-0.001953126396983862,-0.007812505587935448,-0.005859379190951586
14064,-0.02868654392659664,0.004028323106467724,0.0026855487376451492,0.9995734691619873,-0.06640627235174179,-0.44921889901161194,9.703128814697266,-0.001953126396983862,-0.007812505587935448,-0.005859379190951586
14087,-0.02868654392659664,0.004028323106467724,0.0026855487376451492,0.9995734691619873,-0.07812502980232239,-0.6406252384185791,9.753910064697266,-0.001953126396983862,-0.007812505587935448,-0.005859379190951586
14124,-0.02868654392659664,0.004028323106467724,0.0026855487376451492,0.9995734691619873,-0.07812502980232239,-0.6406252384185791,9.753910064697266,-0.001953126396983862,0.015625011175870895,-0.015625011175870895
14139,-0.02868654392659664,0.004028323106467724,0.0026855487376451492,0.9995734691619873,-0.11328128725290298,-0.4882814288139343,9.710941314697266,-0.001953126396983862,0.015625011175870895,-0.015625011175870895
14161,-0.02868654392659664,0.004028323106467724,0.0026855487376451492,0.9995734691619873,-0.16406255960464478,-0.44140639901161194,9.683597564697266,-0.001953126396983862,0.015625011175870895,-0.015625011175870895
14180,-0.02868654392659664,0.004028323106467724,0.0026855487376451492,0.9995734691619873,-0.16406255960464478,-0.44140639901161194,9.683597564697266,-0.005859379190951586,0.0,-0.009765632450580597
14202,-0.02868654392659664,0.004028323106467724,0.0026855487376451492,0.9995734691619873,-0.10546878725290298,-0.4804689288139343,9.679691314697266,-0.005859379190951586,0.0,-0.009765632450580597
14222,-0.02868654392659664,0.004028323106467724,0.0026855487376451492,0.9995734691619873,-0.07812502980232239,-0.5546876788139343,9.761722564697266,-0.005859379190951586,0.0,-0.009765632450580597
14238,-0.02868654392659664,0.004028323106467724,0.0026855487376451492,0.9995734691619873,-0.07812502980232239,-0.5546876788139343,9.761722564697266,-0.015625011175870895,0.015625011175870895,-0.017578138038516045
14257,-0.02868654392659664,0.004028323106467724,0.0026855487376451492,0.9995734691619873,-0.019531257450580597,-0.6132814884185791,9.664066314697266,-0.015625011175870895,0.015625011175870895,-0.017578138038516045
14272,-0.02868654392659664,0.004028323106467724,0.0026855487376451492,0.9995734691619873,-0.046875014901161194,-0.5859377384185791,9.734378814697266,-0.015625011175870895,0.015625011175870895,-0.017578138038516045
14290,-0.02868654392659664,0.004028323106467724,0.0026855487376451492,0.9995734691619873,-0.039062514901161194,-0.5859377384185791,9.687503814697266,-0.015625011175870895,0.015625011175870895,-0.017578138038516045
14306,-0.02868654392659664,0.004028323106467724,0.0026855487376451492,0.9995734691619873,-0.06640627235174179,-0.5664064288139343,9.718753814697266,-0.015625011175870895,0.015625011175870895,-0.017578138038516045
14324,-0.02868654392659664,0.004028323106467724,0.0026855487376451492,0.9995734691619873,-0.12500004470348358,-0.5468751788139343,9.687503814697266,-0.015625011175870895,0.015625011175870895,-0.017578138038516045
14343,-0.02868654392659664,0.004028323106467724,0.0026855487376451492,0.9995734691619873,-0.10546878725290298,-0.5351564288139343,9.714847564697266,-0.015625011175870895,0.015625011175870895,-0.017578138038516045
14366,-0.02868654392659664,0.004028323106467724,0.0026855487376451492,0.9995734691619873,-0.11328128725290298,-0.5156251788139343,9.710941314697266,-0.015625011175870895,0.015625011175870895,-0.017578138038516045
14382,-0.02868654392659664,0.004028323106467724,0.0026855487376451492,0.9995734691619873,-0.11328128725290298,-0.4960939288139343,9.703128814697266,-0.015625011175870895,0.015625011175870895,-0.017578138038516045
14400,-0.02868654392659664,0.004028323106467724,0.0026855487376451492,0.9995734691619873,-0.13281254470348358,-0.4804689288139343,9.707035064697266,-0.015625011175870895,0.015625011175870895,-0.017578138038516045
14415,-0.02868654392659664,0.004028323106467724,0.0026855487376451492,0.9995734691619873,-0.10546878725290298,-0.4960939288139343,9.714847564697266,-0.015625011175870895,0.015625011175870895,-0.017578138038516045
14434,-0.02868654392659664,0.004028323106467724,0.0026855487376451492,0.9995734691619873,-0.027343759313225746,-0.5468751788139343,9.734378814697266,-0.015625011175870895,0.015625011175870895,-0.017578138038516045
14449,-0.02868654392659664,0.004028323106467724,0.0026855487376451492,0.9995734691619873,-0.05859377235174179,-0.5859377384185791,9.687503814697266,-0.015625011175870895,0.015625011175870895,-0.017578138038516045
14468,-0.02813722752034664,0.004028323106467724,0.001892091240733862,0.9995734691619873,-0.05859377235174179,-0.5859377384185791,9.687503814697266,-0.015625011175870895,0.015625011175870895,-0.017578138038516045
14486,-0.02807619236409664,0.004028323106467724,0.001892091240733862,0.9995734691619873,-0.05859377235174179,-0.5859377384185791,9.687503814697266,-0.015625011175870895,0.015625011175870895,-0.017578138038516045
14509,-0.02807619236409664,0.004028323106467724,0.001892091240733862,0.9995734691619873,-0.05859377235174179,-0.5468751788139343,9.718753814697266,-0.015625011175870895,0.015625011175870895,-0.017578138038516045
14525,-0.02807619236409664,0.004028323106467724,0.001892091240733862,0.9995734691619873,-0.05859377235174179,-0.5468751788139343,9.718753814697266,0.005859379190951586,0.005859379190951586,0.005859379190951586
14543,-0.02807619236409664,0.004028323106467724,0.001892091240733862,0.9995734691619873,-0.12500004470348358,-0.5546876788139343,9.671878814697266,0.005859379190951586,0.005859379190951586,0.005859379190951586
14559,-0.02807619236409664,0.004028323106467724,0.001892091240733862,0.9995734691619873,-0.12500004470348358,-0.5546876788139343,9.671878814697266,0.001953126396983862,-0.003906252793967724,-0.013671884313225746
14577,-0.02795412205159664,0.003906252793967724,0.001892091240733862,0.9995734691619873,-0.12500004470348358,-0.5546876788139343,9.671878814697266,0.001953126396983862,-0.003906252793967724,-0.013671884313225746
14596,-0.02795412205159664,0.003906252793967724,0.001892091240733862,0.9995734691619873,-0.10546878725290298,-0.4882814288139343,9.707035064697266,0.001953126396983862,-0.003906252793967724,-0.013671884313225746
14618,-0.02795412205159664,0.003906252793967724,0.001892091240733862,0.9995734691619873,-0.09765628725290298,-0.4804689288139343,9.718753814697266,0.001953126396983862,-0.003906252793967724,-0.013671884313225746
14633,-0.02795412205159664,0.003906252793967724,0.001892091240733862,0.9995734691619873,-0.07812502980232239,-0.5156251788139343,9.707035064697266,0.001953126396983862,-0.003906252793967724,-0.013671884313225746
14656,-0.02795412205159664,0.003906252793967724,0.001892091240733862,0.9995734691619873,-0.027343759313225746,-0.5546876788139343,9.714847564697266,0.001953126396983862,-0.003906252793967724,-0.013671884313225746
14671,-0.02795412205159664,0.003906252793967724,0.001892091240733862,0.9995734691619873,-0.027343759313225746,-0.5546876788139343,9.714847564697266,-0.015625011175870895,0.009765632450580597,-0.011718758381903172
14692,-0.02795412205159664,0.003906252793967724,0.001892091240733862,0.9995734691619873,-0.027343759313225746,-0.5546876788139343,9.714847564697266,0.009765632450580597,-0.009765632450580597,0.0
14708,-0.02795412205159664,0.003906252793967724,0.001892091240733862,0.9995734691619873,-0.05859377235174179,-0.5468751788139343,9.753910064697266,0.009765632450580597,-0.009765632450580597,0.0
14727,-0.02795412205159664,0.003906252793967724,0.001892091240733862,0.9995734691619873,-0.10546878725290298,-0.5664064288139343,9.718753814697266,0.009765632450580597,-0.009765632450580597,0.0
14742,-0.02795412205159664,0.003906252793967724,0.001892091240733862,0.9995734691619873,-0.11328128725290298,-0.5273439288139343,9.726566314697266,0.009765632450580597,-0.009765632450580597,0.0
14760,-0.02795412205159664,0.003906252793967724,0.001892091240733862,0.9995734691619873,-0.11328128725290298,-0.5468751788139343,9.730472564697266,0.009765632450580597,-0.009765632450580597,0.0
14776,-0.02795412205159664,0.003906252793967724,0.001892091240733862,0.9995734691619873,-0.14453129470348358,-0.5156251788139343,9.683597564697266,0.009765632450580597,-0.009765632450580597,0.0
14794,-0.02795412205159664,0.003906252793967724,0.001892091240733862,0.9995734691619873,-0.14453129470348358,-0.5156251788139343,9.683597564697266,-0.003906252793967724,-0.001953126396983862,-0.009765632450580597
14810,-0.02795412205159664,0.003906252793967724,0.001892091240733862,0.9995734691619873,-0.10546878725290298,-0.5546876788139343,9.734378814697266,-0.003906252793967724,-0.001953126396983862,-0.009765632450580597
14831,-0.02795412205159664,0.003906252793967724,0.001892091240733862,0.9995734691619873,-0.10546878725290298,-0.5546876788139343,9.734378814697266,0.009765632450580597,0.0,0.009765632450580597
14846,-0.02795412205159664,0.003906252793967724,0.001892091240733862,0.9995734691619873,-0.06640627235174179,-0.5546876788139343,9.722660064697266,0.009765632450580597,0.0,0.009765632450580597
14865,-0.02795412205159664,0.003906252793967724,0.001892091240733862,0.9995734691619873,-0.06640627235174179,-0.5859377384185791,9.667972564697266,0.009765632450580597,0.0,0.009765632450580597
14880,-0.02795412205159664,0.003906252793967724,0.001892091240733862,0.9995734691619873,-0.046875014901161194,-0.5937502384185791,9.714847564697266,0.009765632450580597,0.0,0.009765632450580597
14899,-0.02795412205159664,0.003906252793967724,0.001892091240733862,0.9995734691619873,-0.07812502980232239,-0.5664064288139343,9.714847564697266,0.009765632450580597,0.0,0.009765632450580597
14917,-0.02795412205159664,0.003906252793967724,0.001892091240733862,0.9995734691619873,-0.05859377235174179,-0.5351564288139343,9.765628814697266,0.009765632450580597,0.0,0.009765632450580597
14940,-0.02795412205159664,0.003906252793967724,0.001892091240733862,0.9995734691619873,-0.09765628725290298,-0.4960939288139343,9.687503814697266,0.009765632450580597,0.0,0.009765632450580597
14955,-0.02795412205159664,0.003906252793967724,0.001892091240733862,0.9995734691619873,-0.07812502980232239,-0.5273439288139343,9.726566314697266,0.009765632450580597,0.0,0.009765632450580597
14978,-0.02795412205159664,0.003906252793967724,0.001892091240733862,0.9995734691619873,-0.10546878725290298,-0.4960939288139343,9.691410064697266,0.009765632450580597,0.0,0.009765632450580597
14997,-0.02795412205159664,0.003906252793967724,0.001892091240733862,0.9995734691619873,-0.10546878725290298,-0.4960939288139343,9.691410064697266,0.027343768626451492,-0.011718758381903172,0.03320314735174179
15019,-0.02795412205159664,0.003906252793967724,0.001892091240733862,0.9995734691619873,-0.05859377235174179,-0.5468751788139343,9.683597564697266,0.027343768626451492,-0.011718758381903172,0.03320314735174179
15035,-0.02795412205159664,0.003906252793967724,0.001892091240733862,0.9995734691619873,-0.08593752980232239,-0.5351564288139343,9.761722564697266,0.027343768626451492,-0.011718758381903172,0.03320314735174179
15057,-0.02795412205159664,0.003906252793967724,0.001892091240733862,0.9995734691619873,-0.07812502980232239,-0.5742189288139343,9.687503814697266,0.027343768626451492,-0.011718758381903172,0.03320314735174179
15093,-0.02795412205159664,0.003906252793967724,0.001892091240733862,0.9995734691619873,-0.07812502980232239,-0.5742189288139343,9.687503814697266,0.009765632450580597,-0.003906252793967724,0.005859379190951586
15109,-0.02795412205159664,0.003906252793967724,0.001892091240733862,0.9995734691619873,-0.08593752980232239,-0.5156251788139343,9.718753814697266,0.009765632450580597,-0.003906252793967724,0.005859379190951586
15131,-0.02795412205159664,0.003906252793967724,0.001892091240733862,0.9995734691619873,-0.046875014901161194,-0.5078126788139343,9.707035064697266,0.009765632450580597,-0.003906252793967724,0.005859379190951586
15167,-0.02795412205159664,0.003906252793967724,0.001892091240733862,0.9995734691619873,-0.046875014901161194,-0.5078126788139343,9.707035064697266,0.001953126396983862,-0.005859379190951586,0.005859379190951586
15183,-0.02795412205159664,0.003906252793967724,0.001892091240733862,0.9995734691619873,-0.08593752980232239,-0.5351564288139343,9.734378814697266,0.001953126396983862,-0.005859379190951586,0.005859379190951586
15206,-0.02795412205159664,0.003906252793967724,0.001892091240733862,0.9995734691619873,-0.12500004470348358,-0.5351564288139343,9.722660064697266,0.001953126396983862,-0.005859379190951586,0.005859379190951586
15224,-0.02795412205159664,0.003906252793967724,0.001892091240733862,0.9995734691619873,-0.12500004470348358,-0.5351564288139343,9.722660064697266,0.003906252793967724,0.013671884313225746,-0.001953126396983862
15241,-0.02795412205159664,0.003906252793967724,0.001892091240733862,0.9995734691619873,-0.09765628725290298,-0.5742189288139343,9.671878814697266,0.003906252793967724,0.013671884313225746,-0.001953126396983862
15295,-0.02795412205159664,0.003906252793967724,0.001892091240733862,0.9995734691619873,-0.09765628725290298,-0.5742189288139343,9.671878814697266,0.001953126396983862,-0.001953126396983862,-0.005859379190951586
15313,-0.02795412205159664,0.003906252793967724,0.001892091240733862,0.9995734691619873,-0.09765628725290298,-0.5742189288139343,9.671878814697266,-0.005859379190951586,-0.011718758381903172,0.005859379190951586
15336,-0.02795412205159664,0.003906252793967724,0.001892091240733862,0.9995734691619873,-0.06640627235174179,-0.5078126788139343,9.750003814697266,-0.005859379190951586,-0.011718758381903172,0.005859379190951586
15351,-0.02795412205159664,0.003906252793967724,0.001892091240733862,0.9995734691619873,-0.06640627235174179,-0.5078126788139343,9.750003814697266,0.015625011175870895,-0.013671884313225746,0.003906252793967724
15374,-0.02795412205159664,0.003906252793967724,0.001892091240733862,0.9995734691619873,-0.05859377235174179,-0.5351564288139343,9.753910064697266,0.015625011175870895,-0.013671884313225746,0.003906252793967724
15392,-0.02795412205159664,0.003906252793967724,0.001892091240733862,0.9995734691619873,-0.05859377235174179,-0.5351564288139343,9.753910064697266,0.017578138038516045,-0.005859379190951586,0.027343768626451492
15415,-0.02795412205159664,0.003906252793967724,0.001892091240733862,0.9995734691619873,-0.06640627235174179,-0.5156251788139343,9.726566314697266,0.017578138038516045,-0.005859379190951586,0.027343768626451492
15430,-0.02795412205159664,0.003906252793967724,0.001892091240733862,0.9995734691619873,-0.08593752980232239,-0.5859377384185791,9.753910064697266,0.017578138038516045,-0.005859379190951586,0.027343768626451492
15453,-0.02795412205159664,0.003906252793967724,0.001892091240733862,0.9995734691619873,-0.07812502980232239,-0.5664064288139343,9.714847564697266,0.017578138038516045,-0.005859379190951586,0.027343768626451492
15471,-0.02795412205159664,0.003906252793967724,0.001892091240733862,0.9995734691619873,-0.07812502980232239,-0.5664064288139343,9.714847564697266,0.007812505587935448,-0.001953126396983862,0.011718758381903172
15495,-0.02795412205159664,0.003906252793967724,0.001892091240733862,0.9995734691619873,-0.07812502980232239,-0.5546876788139343,9.679691314697266,0.007812505587935448,-0.001953126396983862,0.011718758381903172
15509,-0.02764894627034664,0.004089358262717724,0.002014161553233862,0.9996345043182373,-0.07812502980232239,-0.5546876788139343,9.679691314697266,0.007812505587935448,-0.001953126396983862,0.011718758381903172
15533,-0.02764894627034664,0.004089358262717724,0.002014161553233862,0.9996345043182373,-0.10546878725290298,-0.5156251788139343,9.722660064697266,0.007812505587935448,-0.001953126396983862,0.011718758381903172
15551,-0.02764894627034664,0.004089358262717724,0.002014161553233862,0.9996345043182373,-0.10546878725290298,-0.5156251788139343,9.722660064697266,0.005859379190951586,0.001953126396983862,-0.003906252793967724
15574,-0.02764894627034664,0.004089358262717724,0.002014161553233862,0.9996345043182373,-0.05859377235174179,-0.5156251788139343,9.710941314697266,0.005859379190951586,0.001953126396983862,-0.003906252793967724
15589,-0.02764894627034664,0.004089358262717724,0.002014161553233862,0.9996345043182373,-0.07812502980232239,-0.5273439288139343,9.710941314697266,0.005859379190951586,0.001953126396983862,-0.003906252793967724
15607,-0.02764894627034664,0.004089358262717724,0.002014161553233862,0.9996345043182373,-0.07812502980232239,-0.5078126788139343,9.726566314697266,0.005859379190951586,0.001953126396983862,-0.003906252793967724
15624,-0.02764894627034664,0.004089358262717724,0.002014161553233862,0.9996345043182373,-0.07812502980232239,-0.5078126788139343,9.726566314697266,0.0,0.0,0.0
15642,-0.02764894627034664,0.004089358262717724,0.002014161553233862,0.9996345043182373,-0.07812502980232239,-0.5468751788139343,9.718753814697266,0.0,0.0,0.0
15657,-0.02764894627034664,0.004089358262717724,0.002014161553233862,0.9996345043182373,-0.07812502980232239,-0.5468751788139343,9.718753814697266,0.0,0.0,0.0
15676,-0.02764894627034664,0.004089358262717724,0.002014161553233862,0.9996345043182373,-0.07812502980232239,-0.5468751788139343,9.718753814697266,0.0,0.0,0.0
15711,-0.02764894627034664,0.004089358262717724,0.002014161553233862,0.9996345043182373,-0.07812502980232239,-0.5468751788139343,9.718753814697266,0.0,0.0,0.0
15746,-0.02764894627034664,0.004089358262717724,0.002014161553233862,0.9996345043182373,-0.07812502980232239,-0.5468751788139343,9.718753814697266,0.0,0.0,0.0
15764,-0.02764894627034664,0.004089358262717724,0.002014161553233862,0.9996345043182373,-0.07812502980232239,-0.5468751788139343,9.718753814697266,0.0,0.0,0.0
15780,-0.02764894627034664,0.004089358262717724,0.002014161553233862,0.9996345043182373,-0.11328128725290298,-0.5468751788139343,9.683597564697266,0.0,0.0,0.0
15814,-0.02764894627034664,0.004089358262717724,0.002014161553233862,0.9996345043182373,-0.11328128725290298,-0.5468751788139343,9.683597564697266,0.0,0.0,0.0
15849,-0.02764894627034664,0.004089358262717724,0.002014161553233862,0.9996345043182373,-0.11328128725290298,-0.5468751788139343,9.683597564697266,0.0,0.0,0.0
15866,-0.02764894627034664,0.004089358262717724,0.002014161553233862,0.9996345043182373,-0.11328128725290298,-0.5468751788139343,9.683597564697266,0.0,0.0,0.0
15881,-0.02764894627034664,0.004089358262717724,0.002014161553233862,0.9996345043182373,-0.08593752980232239,-0.5273439288139343,9.714847564697266,0.0,0.0,0.0
15897,-0.02764894627034664,0.004089358262717724,0.002014161553233862,0.9996345043182373,-0.08593752980232239,-0.5273439288139343,9.714847564697266,0.0,0.0,0.0
15915,-0.02764894627034664,0.004089358262717724,0.002014161553233862,0.9996345043182373,-0.07812502980232239,-0.5546876788139343,9.722660064697266,0.0,0.0,0.0
15932,-0.02764894627034664,0.004089358262717724,0.002014161553233862,0.9996345043182373,-0.07812502980232239,-0.5546876788139343,9.722660064697266,0.0,0.0,0.0
15948,-0.02764894627034664,0.004089358262717724,0.002014161553233862,0.9996345043182373,-0.05859377235174179,-0.5742189288139343,9.710941314697266,0.0,0.0,0.0
15965,-0.02764894627034664,0.004089358262717724,0.002014161553233862,0.9996345043182373,-0.05859377235174179,-0.5742189288139343,9.710941314697266,0.0,0.0,0.0
15981,-0.02764894627034664,0.004089358262717724,0.002014161553233862,0.9996345043182373,-0.05859377235174179,-0.5742189288139343,9.710941314697266,0.0,0.0,0.0
15997,-0.02764894627034664,0.004089358262717724,0.002014161553233862,0.9996345043182373,-0.08593752980232239,-0.5351564288139343,9.707035064697266,0.0,0.0,0.0
16014,-0.02764894627034664,0.004089358262717724,0.002014161553233862,0.9996345043182373,-0.08593752980232239,-0.5351564288139343,9.707035064697266,0.0,0.0,0.0
16031,-0.02764894627034664,0.004089358262717724,0.002014161553233862,0.9996345043182373,-0.08593752980232239,-0.5351564288139343,9.707035064697266,0.0,0.0,0.0
16048,-0.02764894627034664,0.004089358262717724,0.002014161553233862,0.9996345043182373,-0.08593752980232239,-0.5546876788139343,9.718753814697266,0.0,0.0,0.0
