Timestamp,QI,QJ,QK,QR,AX,AY,AZ,GX,GY,GZ
2453,0.0,0.0,0.0,0.0,-0.07812502980232239,-0.26953133940696716,9.609378814697266,0.0,0.0,0.0
2458,0.0,0.0,0.0,0.0,-0.039062514901161194,-0.26953133940696716,9.609378814697266,0.0,0.0,0.0
2464,0.0,0.0,0.0,0.0,-0.07812502980232239,-0.19140632450580597,9.578128814697266,0.0,0.0,0.0
2468,0.0,0.0,0.0,0.0,-0.07812502980232239,-0.26953133940696716,9.648441314697266,0.0,0.0,0.0
2476,0.0,0.0,0.0,0.0,-0.039062514901161194,-0.26953133940696716,9.609378814697266,0.0,0.0,0.0
2481,0.0,0.0,0.0,0.0,-0.07812502980232239,-0.26953133940696716,9.609378814697266,0.0,0.0,0.0
2486,0.0,0.0,0.0,0.0,-0.039062514901161194,-0.26953133940696716,9.691410064697266,0.0,0.0,0.0
2491,0.0,0.0,0.0,0.0,-0.07812502980232239,-0.26953133940696716,9.582035064697266,0.0,0.0,0.0
2499,0.0,0.0,0.0,0.0,-0.07812502980232239,-0.26953133940696716,9.582035064697266,0.0,-0.001953126396983862,0.001953126396983862
2505,0.0,0.0,0.0,0.0,-0.07812502980232239,-0.26953133940696716,9.609378814697266,0.0,-0.001953126396983862,0.001953126396983862
2509,0.0,0.0,0.0,0.0,-0.07812502980232239,-0.26953133940696716,9.609378814697266,0.001953126396983862,-0.001953126396983862,0.001953126396983862
2514,-0.00714111840352416,-0.012573251500725746,0.9737555980682373,0.22711198031902313,-0.07812502980232239,-0.26953133940696716,9.609378814697266,0.001953126396983862,-0.001953126396983862,0.001953126396983862
2520,-0.00714111840352416,-0.012573251500725746,0.9737555980682373,0.22711198031902313,-0.07812502980232239,-0.23046883940696716,9.652347564697266,0.001953126396983862,-0.001953126396983862,0.001953126396983862
2525,-0.00714111840352416,-0.012573251500725746,0.9737555980682373,0.22711198031902313,-0.07812502980232239,-0.23046883940696716,9.652347564697266,0.001953126396983862,0.0,0.0
2530,-0.00714111840352416,-0.012573251500725746,0.9737555980682373,0.22711198031902313,-0.039062514901161194,-0.23046883940696716,9.613285064697266,0.001953126396983862,0.0,0.0
2535,-0.00714111840352416,-0.012573251500725746,0.9737555980682373,0.22711198031902313,-0.039062514901161194,-0.23046883940696716,9.613285064697266,-0.001953126396983862,0.001953126396983862,0.0
2540,-0.00714111840352416,-0.012573251500725746,0.9737555980682373,0.22711198031902313,-0.07812502980232239,-0.19140632450580597,9.652347564697266,-0.001953126396983862,0.001953126396983862,0.0
2546,-0.00714111840352416,-0.012573251500725746,0.9737555980682373,0.22711198031902313,-0.07812502980232239,-0.19140632450580597,9.652347564697266,0.0,-0.001953126396983862,0.0
2550,-0.00714111840352416,-0.012573251500725746,0.9737555980682373,0.22711198031902313,-0.07812502980232239,-0.19140632450580597,9.613285064697266,0.0,-0.001953126396983862,0.0
2555,-0.00714111840352416,-0.012573251500725746,0.9737555980682373,0.22711198031902313,-0.07812502980232239,-0.19140632450580597,9.613285064697266,0.001953126396983862,-0.003906252793967724,-0.001953126396983862
2561,-0.00714111840352416,-0.012573251500725746,0.9737555980682373,0.22711198031902313,-0.07812502980232239,-0.19140632450580597,9.613285064697266,0.001953126396983862,-0.003906252793967724,-0.001953126396983862
2566,-0.00714111840352416,-0.012573251500725746,0.9737555980682373,0.22711198031902313,-0.07812502980232239,-0.19140632450580597,9.613285064697266,-0.001953126396983862,0.0,0.0
2571,-0.00714111840352416,-0.012573251500725746,0.9737555980682373,0.22711198031902313,-0.039062514901161194,-0.19140632450580597,9.613285064697266,-0.001953126396983862,0.0,0.0
2576,-0.00708008324727416,-0.012573251500725746,0.9737555980682373,0.22711198031902313,-0.039062514901161194,-0.19140632450580597,9.613285064697266,-0.001953126396983862,0.0,0.0
2582,-0.00708008324727416,-0.012573251500725746,0.9737555980682373,0.22711198031902313,-0.07812502980232239,-0.19140632450580597,9.652347564697266,-0.001953126396983862,0.0,0.0
2587,-0.00708008324727416,-0.012573251500725746,0.9737555980682373,0.22711198031902313,-0.07812502980232239,-0.23046883940696716,9.613285064697266,-0.001953126396983862,0.0,0.0
2592,-0.00708008324727416,-0.012573251500725746,0.9737555980682373,0.22711198031902313,-0.07812502980232239,-0.23046883940696716,9.613285064697266,0.0,-0.001953126396983862,0.0
2598,-0.00708008324727416,-0.012573251500725746,0.9737555980682373,0.22711198031902313,-0.11328128725290298,-0.23046883940696716,9.578128814697266,0.0,-0.001953126396983862,0.0
2604,-0.00708008324727416,-0.012573251500725746,0.9737555980682373,0.22711198031902313,-0.11328128725290298,-0.23046883940696716,9.578128814697266,0.001953126396983862,-0.001953126396983862,0.001953126396983862
2609,-0.00708008324727416,-0.012573251500725746,0.9737555980682373,0.22711198031902313,-0.039062514901161194,-0.23046883940696716,9.578128814697266,0.001953126396983862,-0.001953126396983862,0.001953126396983862
2614,-0.00708008324727416,-0.012573251500725746,0.9737555980682373,0.22711198031902313,-0.039062514901161194,-0.23046883940696716,9.578128814697266,0.003906252793967724,0.0,0.001953126396983862
2618,-0.00708008324727416,-0.012573251500725746,0.9737555980682373,0.22711198031902313,-0.07812502980232239,-0.26953133940696716,9.609378814697266,0.003906252793967724,0.0,0.001953126396983862
2624,-0.00708008324727416,-0.012573251500725746,0.9737555980682373,0.22711198031902313,-0.07812502980232239,-0.26953133940696716,9.609378814697266,0.007812505587935448,0.0,0.0
2629,-0.00708008324727416,-0.012573251500725746,0.9737555980682373,0.22711198031902313,-0.07812502980232239,-0.26953133940696716,9.609378814697266,0.007812505587935448,0.0,0.0
2634,-0.00708008324727416,-0.012573251500725746,0.9737555980682373,0.22711198031902313,-0.07812502980232239,-0.26953133940696716,9.609378814697266,0.0,-0.001953126396983862,0.001953126396983862
2639,-0.00708008324727416,-0.012573251500725746,0.9737555980682373,0.22711198031902313,-0.07812502980232239,-0.26953133940696716,9.609378814697266,0.0,-0.001953126396983862,0.001953126396983862
2646,-0.00708008324727416,-0.012573251500725746,0.9737555980682373,0.22711198031902313,-0.07812502980232239,-0.26953133940696716,9.609378814697266,0.0,-0.001953126396983862,0.0
2652,-0.00708008324727416,-0.012573251500725746,0.9737555980682373,0.22711198031902313,-0.07812502980232239,-0.26953133940696716,9.648441314697266,0.0,-0.001953126396983862,0.0
2656,-0.00708008324727416,-0.012573251500725746,0.9737555980682373,0.22711198031902313,-0.07812502980232239,-0.30468761920928955,9.613285064697266,0.0,-0.001953126396983862,0.0
2662,-0.00708008324727416,-0.012573251500725746,0.9737555980682373,0.22711198031902313,-0.07812502980232239,-0.30468761920928955,9.613285064697266,-0.001953126396983862,-0.001953126396983862,0.0
2667,-0.00708008324727416,-0.012573251500725746,0.9737555980682373,0.22711198031902313,-0.039062514901161194,-0.26953133940696716,9.609378814697266,-0.001953126396983862,-0.001953126396983862,0.0
2672,-0.00708008324727416,-0.012573251500725746,0.9737555980682373,0.22711198031902313,-0.039062514901161194,-0.26953133940696716,9.609378814697266,0.001953126396983862,0.001953126396983862,0.0
2677,-0.00708008324727416,-0.012573251500725746,0.9737555980682373,0.22711198031902313,-0.07812502980232239,-0.26953133940696716,9.609378814697266,0.001953126396983862,0.001953126396983862,0.0
2683,-0.00708008324727416,-0.012573251500725746,0.9737555980682373,0.22711198031902313,-0.07812502980232239,-0.26953133940696716,9.609378814697266,0.0,0.005859379190951586,0.0
2688,-0.00708008324727416,-0.012573251500725746,0.9737555980682373,0.22711198031902313,-0.07812502980232239,-0.23046883940696716,9.613285064697266,0.0,0.005859379190951586,0.0
2694,-0.00708008324727416,-0.012573251500725746,0.9737555980682373,0.22711198031902313,-0.07812502980232239,-0.23046883940696716,9.613285064697266,0.0,0.0,0.001953126396983862
2700,-0.00708008324727416,-0.012573251500725746,0.9737555980682373,0.22711198031902313,-0.07812502980232239,-0.19140632450580597,9.652347564697266,0.0,0.0,0.001953126396983862
2705,-0.00708008324727416,-0.012573251500725746,0.9737555980682373,0.22711198031902313,-0.07812502980232239,-0.23046883940696716,9.652347564697266,0.0,0.0,0.001953126396983862
2711,-0.00708008324727416,-0.012573251500725746,0.9737555980682373,0.22711198031902313,-0.07812502980232239,-0.19140632450580597,9.613285064697266,0.0,0.0,0.001953126396983862
2716,-0.00708008324727416,-0.012573251500725746,0.9737555980682373,0.22711198031902313,-0.07812502980232239,-0.19140632450580597,9.613285064697266,0.0,0.0,0.001953126396983862
2722,-0.00708008324727416,-0.012573251500725746,0.9737555980682373,0.22711198031902313,-0.07812502980232239,-0.19140632450580597,9.613285064697266,0.0,0.001953126396983862,0.0
2726,-0.00708008324727416,-0.012573251500725746,0.9737555980682373,0.22711198031902313,-0.07812502980232239,-0.19140632450580597,9.613285064697266,0.0,0.001953126396983862,0.0
2732,-0.00708008324727416,-0.012573251500725746,0.9737555980682373,0.22711198031902313,-0.07812502980232239,-0.19140632450580597,9.613285064697266,0.001953126396983862,0.003906252793967724,-0.001953126396983862
2737,-0.00708008324727416,-0.012573251500725746,0.9737555980682373,0.22711198031902313,-0.11328128725290298,-0.19140632450580597,9.613285064697266,0.001953126396983862,0.003906252793967724,-0.001953126396983862
2743,-0.00708008324727416,-0.012573251500725746,0.9737555980682373,0.22711198031902313,-0.11328128725290298,-0.19140632450580597,9.613285064697266,0.003906252793967724,0.001953126396983862,-0.001953126396983862
2747,-0.00708008324727416,-0.012573251500725746,0.9737555980682373,0.22711198031902313,-0.07812502980232239,-0.19140632450580597,9.613285064697266,0.003906252793967724,0.001953126396983862,-0.001953126396983862
2753,-0.00708008324727416,-0.012573251500725746,0.9737555980682373,0.22711198031902313,-0.07812502980232239,-0.19140632450580597,9.613285064697266,0.001953126396983862,0.0,0.0
2760,-0.00708008324727416,-0.012573251500725746,0.9737555980682373,0.22711198031902313,-0.11328128725290298,-0.19140632450580597,9.578128814697266,0.001953126396983862,0.0,0.0
2764,-0.00708008324727416,-0.012573251500725746,0.9737555980682373,0.22711198031902313,-0.039062514901161194,-0.23046883940696716,9.613285064697266,0.001953126396983862,0.0,0.0
2769,-0.00708008324727416,-0.012573251500725746,0.9737555980682373,0.22711198031902313,-0.039062514901161194,-0.23046883940696716,9.613285064697266,0.0,-0.001953126396983862,-0.001953126396983862
2775,-0.00708008324727416,-0.012573251500725746,0.9737555980682373,0.22711198031902313,-0.07812502980232239,-0.23046883940696716,9.652347564697266,0.0,-0.001953126396983862,-0.001953126396983862
2781,-0.00708008324727416,-0.012573251500725746,0.9737555980682373,0.22711198031902313,-0.07812502980232239,-0.23046883940696716,9.613285064697266,0.0,-0.001953126396983862,-0.001953126396983862
2786,-0.00708008324727416,-0.012573251500725746,0.9737555980682373,0.22711198031902313,-0.07812502980232239,-0.26953133940696716,9.609378814697266,0.0,-0.001953126396983862,-0.001953126396983862
2791,-0.00708008324727416,-0.012573251500725746,0.9737555980682373,0.22711198031902313,-0.07812502980232239,-0.26953133940696716,9.609378814697266,-0.003906252793967724,0.003906252793967724,0.001953126396983862
2797,-0.00708008324727416,-0.012573251500725746,0.9737555980682373,0.22711198031902313,-0.039062514901161194,-0.26953133940696716,9.609378814697266,-0.003906252793967724,0.003906252793967724,0.001953126396983862
2803,-0.00708008324727416,-0.012573251500725746,0.9737555980682373,0.22711198031902313,-0.039062514901161194,-0.26953133940696716,9.609378814697266,-0.001953126396983862,0.0,-0.001953126396983862
2808,-0.00708008324727416,-0.012573251500725746,0.9737555980682373,0.22711198031902313,-0.07812502980232239,-0.26953133940696716,9.648441314697266,-0.001953126396983862,0.0,-0.001953126396983862
2813,-0.00708008324727416,-0.012573251500725746,0.9737555980682373,0.22711198031902313,-0.07812502980232239,-0.26953133940696716,9.648441314697266,-0.003906252793967724,0.003906252793967724,0.001953126396983862
2820,-0.00708008324727416,-0.012573251500725746,0.9737555980682373,0.22711198031902313,-0.039062514901161194,-0.23046883940696716,9.578128814697266,-0.003906252793967724,0.003906252793967724,0.001953126396983862
2826,-0.00708008324727416,-0.012573251500725746,0.9737555980682373,0.22711198031902313,-0.07812502980232239,-0.23046883940696716,9.613285064697266,-0.003906252793967724,0.003906252793967724,0.001953126396983862
2831,-0.00708008324727416,-0.012573251500725746,0.9737555980682373,0.22711198031902313,-0.07812502980232239,-0.23046883940696716,9.613285064697266,-0.003906252793967724,0.0,0.0
2836,-0.00708008324727416,-0.012573251500725746,0.9737555980682373,0.22711198031902313,-0.039062514901161194,-0.23046883940696716,9.652347564697266,-0.003906252793967724,0.0,0.0
2842,-0.00708008324727416,-0.012573251500725746,0.9737555980682373,0.22711198031902313,-0.039062514901161194,-0.23046883940696716,9.652347564697266,-0.001953126396983862,-0.001953126396983862,0.0
2846,-0.00708008324727416,-0.012573251500725746,0.9737555980682373,0.22711198031902313,-0.039062514901161194,-0.26953133940696716,9.582035064697266,-0.001953126396983862,-0.001953126396983862,0.0
2852,-0.00708008324727416,-0.012573251500725746,0.9737555980682373,0.22711198031902313,-0.039062514901161194,-0.26953133940696716,9.582035064697266,-0.001953126396983862,0.001953126396983862,0.0
2857,-0.00708008324727416,-0.012573251500725746,0.9737555980682373,0.22711198031902313,-0.039062514901161194,-0.26953133940696716,9.582035064697266,-0.001953126396983862,0.001953126396983862,0.0
2864,-0.00695801293477416,-0.012329109944403172,0.9737555980682373,0.22705094516277313,-0.039062514901161194,-0.26953133940696716,9.582035064697266,-0.001953126396983862,0.001953126396983862,0.0
2869,-0.00695801293477416,-0.012329109944403172,0.9737555980682373,0.22705094516277313,0.0,-0.26953133940696716,9.609378814697266,-0.001953126396983862,0.001953126396983862,0.0
2873,-0.00695801293477416,-0.012329109944403172,0.9737555980682373,0.22705094516277313,-0.039062514901161194,-0.23046883940696716,9.613285064697266,-0.001953126396983862,0.001953126396983862,0.0
2879,-0.00695801293477416,-0.012329109944403172,0.9737555980682373,0.22705094516277313,-0.07812502980232239,-0.26953133940696716,9.609378814697266,-0.001953126396983862,0.001953126396983862,0.0
2884,-0.00695801293477416,-0.012329109944403172,0.9737555980682373,0.22705094516277313,-0.11328128725290298,-0.26953133940696716,9.691410064697266,-0.001953126396983862,0.001953126396983862,0.0
2890,-0.00695801293477416,-0.012329109944403172,0.9737555980682373,0.22705094516277313,-0.11328128725290298,-0.26953133940696716,9.691410064697266,-0.001953126396983862,0.001953126396983862,0.001953126396983862
2895,-0.00695801293477416,-0.012329109944403172,0.9737555980682373,0.22705094516277313,-0.039062514901161194,-0.23046883940696716,9.613285064697266,-0.001953126396983862,0.001953126396983862,0.001953126396983862
2902,-0.00695801293477416,-0.012329109944403172,0.9737555980682373,0.22705094516277313,-0.039062514901161194,-0.23046883940696716,9.613285064697266,0.0,0.0,-0.001953126396983862
2906,-0.00695801293477416,-0.012329109944403172,0.9737555980682373,0.22705094516277313,-0.07812502980232239,-0.26953133940696716,9.609378814697266,0.0,0.0,-0.001953126396983862
2911,-0.00695801293477416,-0.012329109944403172,0.9737555980682373,0.22705094516277313,-0.07812502980232239,-0.26953133940696716,9.609378814697266,0.001953126396983862,-0.003906252793967724,0.0
2916,-0.00695801293477416,-0.012329109944403172,0.9737555980682373,0.22705094516277313,-0.039062514901161194,-0.23046883940696716,9.652347564697266,0.001953126396983862,-0.003906252793967724,0.0
2922,-0.00695801293477416,-0.012329109944403172,0.9737555980682373,0.22705094516277313,-0.039062514901161194,-0.23046883940696716,9.652347564697266,-0.001953126396983862,0.001953126396983862,0.001953126396983862
2927,-0.00695801293477416,-0.012329109944403172,0.9737555980682373,0.22705094516277313,-0.07812502980232239,-0.26953133940696716,9.609378814697266,-0.001953126396983862,0.001953126396983862,0.001953126396983862
2932,-0.00695801293477416,-0.012207039631903172,0.9737555980682373,0.22705094516277313,-0.07812502980232239,-0.26953133940696716,9.609378814697266,-0.001953126396983862,0.001953126396983862,0.001953126396983862
2938,-0.00695801293477416,-0.012207039631903172,0.9737555980682373,0.22705094516277313,-0.07812502980232239,-0.19140632450580597,9.613285064697266,-0.001953126396983862,0.001953126396983862,0.001953126396983862
2944,-0.00695801293477416,-0.012207039631903172,0.9737555980682373,0.22705094516277313,-0.11328128725290298,-0.26953133940696716,9.609378814697266,-0.001953126396983862,0.001953126396983862,0.001953126396983862
2949,-0.00695801293477416,-0.012207039631903172,0.9737555980682373,0.22705094516277313,-0.11328128725290298,-0.26953133940696716,9.609378814697266,0.0,0.001953126396983862,0.001953126396983862
2954,-0.00695801293477416,-0.012207039631903172,0.9737555980682373,0.22705094516277313,-0.07812502980232239,-0.19140632450580597,9.613285064697266,0.0,0.001953126396983862,0.001953126396983862
2959,-0.00695801293477416,-0.012207039631903172,0.9737555980682373,0.22705094516277313,-0.07812502980232239,-0.19140632450580597,9.613285064697266,0.001953126396983862,-0.001953126396983862,-0.001953126396983862
2964,-0.00695801293477416,-0.012207039631903172,0.9737555980682373,0.22705094516277313,-0.07812502980232239,-0.23046883940696716,9.613285064697266,0.001953126396983862,-0.001953126396983862,-0.001953126396983862
2969,-0.00695801293477416,-0.012207039631903172,0.9737555980682373,0.22705094516277313,-0.07812502980232239,-0.23046883940696716,9.613285064697266,0.001953126396983862,-0.005859379190951586,0.0
2974,-0.00695801293477416,-0.012207039631903172,0.9737555980682373,0.22705094516277313,-0.11328128725290298,-0.19140632450580597,9.613285064697266,0.001953126396983862,-0.005859379190951586,0.0
2980,-0.00695801293477416,-0.012207039631903172,0.9737555980682373,0.22705094516277313,-0.11328128725290298,-0.19140632450580597,9.613285064697266,-0.003906252793967724,0.001953126396983862,0.0
2984,-0.00695801293477416,-0.012207039631903172,0.9737555980682373,0.22705094516277313,-0.11328128725290298,-0.15234380960464478,9.648441314697266,-0.003906252793967724,0.001953126396983862,0.0
2991,-0.00695801293477416,-0.012207039631903172,0.9737555980682373,0.22705094516277313,-0.11328128725290298,-0.15234380960464478,9.648441314697266,-0.001953126396983862,0.001953126396983862,0.0
2996,-0.00695801293477416,-0.012207039631903172,0.9737555980682373,0.22705094516277313,-0.11328128725290298,-0.23046883940696716,9.613285064697266,-0.001953126396983862,0.001953126396983862,0.0
3002,-0.00689697777852416,-0.012207039631903172,0.9737555980682373,0.22711198031902313,-0.11328128725290298,-0.23046883940696716,9.613285064697266,-0.001953126396983862,0.001953126396983862,0.0
3007,-0.00689697777852416,-0.012207039631903172,0.9737555980682373,0.22711198031902313,-0.11328128725290298,-0.23046883940696716,9.613285064697266,0.001953126396983862,-0.001953126396983862,0.0
3012,-0.00689697777852416,-0.012207039631903172,0.9737555980682373,0.22711198031902313,-0.039062514901161194,-0.26953133940696716,9.582035064697266,0.001953126396983862,-0.001953126396983862,0.0
3018,-0.00689697777852416,-0.012207039631903172,0.9737555980682373,0.22711198031902313,-0.039062514901161194,-0.26953133940696716,9.582035064697266,0.0,0.001953126396983862,0.001953126396983862
3023,-0.00689697777852416,-0.012207039631903172,0.9737555980682373,0.22711198031902313,-0.039062514901161194,-0.26953133940696716,9.609378814697266,0.0,0.001953126396983862,0.001953126396983862
3028,-0.00689697777852416,-0.012207039631903172,0.9737555980682373,0.22711198031902313,-0.039062514901161194,-0.26953133940696716,9.609378814697266,0.001953126396983862,0.0,0.001953126396983862
3034,-0.00689697777852416,-0.012207039631903172,0.9737555980682373,0.22711198031902313,-0.07812502980232239,-0.23046883940696716,9.613285064697266,0.001953126396983862,0.0,0.001953126396983862
3039,-0.00689697777852416,-0.012207039631903172,0.9737555980682373,0.22711198031902313,-0.07812502980232239,-0.23046883940696716,9.613285064697266,0.001953126396983862,-0.001953126396983862,-0.001953126396983862
3044,-0.00689697777852416,-0.012207039631903172,0.9737555980682373,0.22711198031902313,-0.07812502980232239,-0.23046883940696716,9.613285064697266,0.001953126396983862,-0.001953126396983862,-0.001953126396983862
3049,-0.00689697777852416,-0.012207039631903172,0.9737555980682373,0.22711198031902313,-0.07812502980232239,-0.23046883940696716,9.613285064697266,0.0,0.001953126396983862,-0.001953126396983862
3054,-0.00689697777852416,-0.012207039631903172,0.9737555980682373,0.22711198031902313,-0.07812502980232239,-0.26953133940696716,9.609378814697266,0.0,0.001953126396983862,-0.001953126396983862
3059,-0.00689697777852416,-0.012207039631903172,0.9737555980682373,0.22711198031902313,-0.07812502980232239,-0.26953133940696716,9.609378814697266,0.0,0.001953126396983862,0.001953126396983862
3064,-0.00689697777852416,-0.012207039631903172,0.9737555980682373,0.22711198031902313,-0.07812502980232239,-0.26953133940696716,9.609378814697266,0.0,0.001953126396983862,0.001953126396983862
3069,-0.00689697777852416,-0.012207039631903172,0.9737555980682373,0.22711198031902313,-0.07812502980232239,-0.26953133940696716,9.609378814697266,-0.001953126396983862,0.0,-0.001953126396983862
3076,-0.00689697777852416,-0.012207039631903172,0.9737555980682373,0.22711198031902313,-0.07812502980232239,-0.26953133940696716,9.609378814697266,-0.001953126396983862,0.0,-0.001953126396983862
3081,-0.00689697777852416,-0.012207039631903172,0.9737555980682373,0.22711198031902313,-0.07812502980232239,-0.26953133940696716,9.691410064697266,-0.001953126396983862,0.0,-0.001953126396983862
3087,-0.00689697777852416,-0.012207039631903172,0.9737555980682373,0.22711198031902313,-0.07812502980232239,-0.26953133940696716,9.648441314697266,-0.001953126396983862,0.0,-0.001953126396983862
3093,-0.00689697777852416,-0.012207039631903172,0.9737555980682373,0.22711198031902313,-0.07812502980232239,-0.26953133940696716,9.609378814697266,-0.001953126396983862,0.0,-0.001953126396983862
3098,-0.00689697777852416,-0.012207039631903172,0.9737555980682373,0.22711198031902313,-0.07812502980232239,-0.26953133940696716,9.609378814697266,0.003906252793967724,0.0,0.0
3103,-0.00689697777852416,-0.012207039631903172,0.9737555980682373,0.22711198031902313,-0.039062514901161194,-0.26953133940696716,9.609378814697266,0.003906252793967724,0.0,0.0
3108,-0.00689697777852416,-0.012207039631903172,0.9737555980682373,0.22711198031902313,-0.039062514901161194,-0.26953133940696716,9.609378814697266,0.001953126396983862,-0.001953126396983862,-0.001953126396983862
3113,-0.00689697777852416,-0.012207039631903172,0.9737555980682373,0.22711198031902313,-0.039062514901161194,-0.23046883940696716,9.613285064697266,0.001953126396983862,-0.001953126396983862,-0.001953126396983862
3119,-0.00689697777852416,-0.012207039631903172,0.9737555980682373,0.22711198031902313,-0.039062514901161194,-0.23046883940696716,9.613285064697266,0.0,0.001953126396983862,-0.001953126396983862
3124,-0.00689697777852416,-0.012207039631903172,0.9737555980682373,0.22711198031902313,-0.039062514901161194,-0.26953133940696716,9.648441314697266,0.0,0.001953126396983862,-0.001953126396983862
3130,-0.006835942156612873,-0.012023934163153172,0.9737555980682373,0.22711198031902313,-0.039062514901161194,-0.26953133940696716,9.648441314697266,0.0,0.001953126396983862,-0.001953126396983862
3135,-0.006835942156612873,-0.012023934163153172,0.9737555980682373,0.22711198031902313,-0.039062514901161194,-0.26953133940696716,9.609378814697266,0.0,0.001953126396983862,-0.001953126396983862
3140,-0.006835942156612873,-0.012023934163153172,0.9737555980682373,0.22711198031902313,0.0,-0.26953133940696716,9.609378814697266,0.0,0.001953126396983862,-0.001953126396983862
3146,-0.006835942156612873,-0.012023934163153172,0.9737555980682373,0.22711198031902313,0.0,-0.26953133940696716,9.609378814697266,-0.003906252793967724,0.001953126396983862,0.001953126396983862
3151,-0.006835942156612873,-0.012023934163153172,0.9737555980682373,0.22711198031902313,-0.07812502980232239,-0.19140632450580597,9.652347564697266,-0.003906252793967724,0.001953126396983862,0.001953126396983862
3156,-0.006835942156612873,-0.012023934163153172,0.9737555980682373,0.22711198031902313,-0.07812502980232239,-0.15234380960464478,9.609378814697266,-0.003906252793967724,0.001953126396983862,0.001953126396983862
3162,-0.006835942156612873,-0.012023934163153172,0.9737555980682373,0.22711198031902313,-0.039062514901161194,-0.23046883940696716,9.652347564697266,-0.003906252793967724,0.001953126396983862,0.001953126396983862
3167,-0.006835942156612873,-0.012023934163153172,0.9737555980682373,0.22711198031902313,-0.039062514901161194,-0.23046883940696716,9.652347564697266,0.0,0.001953126396983862,-0.001953126396983862
3172,-0.006835942156612873,-0.012023934163153172,0.9737555980682373,0.22711198031902313,-0.11328128725290298,-0.23046883940696716,9.578128814697266,0.0,0.001953126396983862,-0.001953126396983862
3178,-0.006835942156612873,-0.012023934163153172,0.9737555980682373,0.22711198031902313,-0.11328128725290298,-0.23046883940696716,9.578128814697266,-0.001953126396983862,-0.003906252793967724,0.0
3183,-0.006835942156612873,-0.012023934163153172,0.9737555980682373,0.22711198031902313,-0.11328128725290298,-0.23046883940696716,9.578128814697266,-0.001953126396983862,-0.003906252793967724,0.0
3188,-0.006835942156612873,-0.012023934163153172,0.9737555980682373,0.22711198031902313,-0.11328128725290298,-0.23046883940696716,9.578128814697266,0.001953126396983862,0.0,0.001953126396983862
3194,-0.006835942156612873,-0.012023934163153172,0.9737555980682373,0.22711198031902313,-0.07812502980232239,-0.23046883940696716,9.652347564697266,0.001953126396983862,0.0,0.001953126396983862
3200,-0.006774907000362873,-0.011962899006903172,0.9737555980682373,0.22711198031902313,-0.07812502980232239,-0.23046883940696716,9.652347564697266,0.001953126396983862,0.0,0.001953126396983862
3206,-0.006774907000362873,-0.011962899006903172,0.9737555980682373,0.22711198031902313,-0.07812502980232239,-0.26953133940696716,9.609378814697266,0.001953126396983862,0.0,0.001953126396983862
3211,-0.006774907000362873,-0.011962899006903172,0.9737555980682373,0.22711198031902313,-0.039062514901161194,-0.23046883940696716,9.613285064697266,0.001953126396983862,0.0,0.001953126396983862
3216,-0.006774907000362873,-0.011962899006903172,0.9737555980682373,0.22711198031902313,-0.039062514901161194,-0.23046883940696716,9.613285064697266,0.0,0.0,0.0
3221,-0.006774907000362873,-0.011962899006903172,0.9737555980682373,0.22711198031902313,-0.07812502980232239,-0.19140632450580597,9.613285064697266,0.0,0.0,0.0
3226,-0.006774907000362873,-0.011962899006903172,0.9737555980682373,0.22711198031902313,-0.07812502980232239,-0.19140632450580597,9.613285064697266,-0.003906252793967724,-0.001953126396983862,-0.001953126396983862
3232,-0.006774907000362873,-0.011962899006903172,0.9737555980682373,0.22711198031902313,-0.039062514901161194,-0.23046883940696716,9.613285064697266,-0.003906252793967724,-0.001953126396983862,-0.001953126396983862
3237,-0.006774907000362873,-0.011962899006903172,0.9737555980682373,0.22711198031902313,-0.039062514901161194,-0.23046883940696716,9.613285064697266,0.0,-0.001953126396983862,-0.001953126396983862
3241,-0.006774907000362873,-0.011962899006903172,0.9737555980682373,0.22711198031902313,-0.07812502980232239,-0.23046883940696716,9.613285064697266,0.0,-0.001953126396983862,-0.001953126396983862
3247,-0.006774907000362873,-0.011962899006903172,0.9737555980682373,0.22711198031902313,-0.07812502980232239,-0.23046883940696716,9.613285064697266,0.0,0.0,0.001953126396983862
3252,-0.006774907000362873,-0.011962899006903172,0.9737555980682373,0.22711198031902313,-0.07812502980232239,-0.26953133940696716,9.730472564697266,0.0,0.0,0.001953126396983862
3257,-0.006774907000362873,-0.011962899006903172,0.9737555980682373,0.22711198031902313,-0.07812502980232239,-0.26953133940696716,9.730472564697266,0.0,0.0,0.001953126396983862
3262,-0.006774907000362873,-0.011962899006903172,0.9737555980682373,0.22711198031902313,-0.07812502980232239,-0.26953133940696716,9.648441314697266,0.0,0.0,0.001953126396983862
3267,-0.006774907000362873,-0.011962899006903172,0.9737555980682373,0.22711198031902313,-0.07812502980232239,-0.26953133940696716,9.648441314697266,-0.001953126396983862,0.0,0.0
3273,-0.006774907000362873,-0.011962899006903172,0.9737555980682373,0.22711198031902313,-0.07812502980232239,-0.26953133940696716,9.648441314697266,-0.001953126396983862,0.0,0.0
3279,-0.006713871844112873,-0.011901863850653172,0.9737555980682373,0.22711198031902313,-0.07812502980232239,-0.26953133940696716,9.648441314697266,-0.001953126396983862,0.0,0.0
3284,-0.006713871844112873,-0.011901863850653172,0.9737555980682373,0.22711198031902313,-0.07812502980232239,-0.26953133940696716,9.648441314697266,0.0,-0.001953126396983862,0.0
3290,-0.006713871844112873,-0.011901863850653172,0.9737555980682373,0.22711198031902313,-0.039062514901161194,-0.23046883940696716,9.652347564697266,0.0,-0.001953126396983862,0.0
3295,-0.006713871844112873,-0.011901863850653172,0.9737555980682373,0.22711198031902313,-0.039062514901161194,-0.23046883940696716,9.652347564697266,0.001953126396983862,-0.003906252793967724,0.0
3300,-0.006713871844112873,-0.011901863850653172,0.9737555980682373,0.22711198031902313,-0.039062514901161194,-0.19140632450580597,9.652347564697266,0.001953126396983862,-0.003906252793967724,0.0
3305,-0.006713871844112873,-0.011901863850653172,0.9737555980682373,0.22711198031902313,-0.039062514901161194,-0.19140632450580597,9.652347564697266,-0.001953126396983862,0.001953126396983862,0.001953126396983862
3310,-0.006713871844112873,-0.011901863850653172,0.9737555980682373,0.22711198031902313,-0.07812502980232239,-0.23046883940696716,9.613285064697266,-0.001953126396983862,0.001953126396983862,0.001953126396983862
3315,-0.006713871844112873,-0.011901863850653172,0.9737555980682373,0.22711198031902313,-0.07812502980232239,-0.23046883940696716,9.613285064697266,0.003906252793967724,-0.003906252793967724,0.0
3320,-0.006713871844112873,-0.011901863850653172,0.9737555980682373,0.22711198031902313,-0.07812502980232239,-0.23046883940696716,9.652347564697266,0.003906252793967724,-0.003906252793967724,0.0
3325,-0.006713871844112873,-0.011901863850653172,0.9737555980682373,0.22711198031902313,-0.07812502980232239,-0.23046883940696716,9.652347564697266,0.005859379190951586,-0.001953126396983862,0.0
3331,-0.006713871844112873,-0.011901863850653172,0.9737555980682373,0.22711198031902313,-0.07812502980232239,-0.26953133940696716,9.648441314697266,0.005859379190951586,-0.001953126396983862,0.0
3337,-0.006713871844112873,-0.011901863850653172,0.9737555980682373,0.22711198031902313,-0.07812502980232239,-0.26953133940696716,9.648441314697266,-0.001953126396983862,0.0,0.001953126396983862
3341,-0.006713871844112873,-0.011901863850653172,0.9737555980682373,0.22711198031902313,-0.07812502980232239,-0.23046883940696716,9.652347564697266,-0.001953126396983862,0.0,0.001953126396983862
3346,-0.006713871844112873,-0.011901863850653172,0.9737555980682373,0.22711198031902313,-0.07812502980232239,-0.23046883940696716,9.652347564697266,0.0,0.001953126396983862,0.001953126396983862
3353,-0.006713871844112873,-0.011901863850653172,0.9737555980682373,0.22711198031902313,-0.039062514901161194,-0.23046883940696716,9.613285064697266,0.0,0.001953126396983862,0.001953126396983862
3357,-0.006713871844112873,-0.011901863850653172,0.9737555980682373,0.22711198031902313,-0.07812502980232239,-0.23046883940696716,9.539066314697266,0.0,0.001953126396983862,0.001953126396983862
3363,-0.006713871844112873,-0.011901863850653172,0.9737555980682373,0.22711198031902313,-0.07812502980232239,-0.23046883940696716,9.539066314697266,-0.001953126396983862,0.001953126396983862,0.0
3369,-0.006713871844112873,-0.011901863850653172,0.9737555980682373,0.22711198031902313,-0.07812502980232239,-0.23046883940696716,9.652347564697266,-0.001953126396983862,0.001953126396983862,0.0
3375,-0.006713871844112873,-0.011901863850653172,0.9737555980682373,0.22711198031902313,-0.07812502980232239,-0.23046883940696716,9.652347564697266,0.0,0.003906252793967724,0.001953126396983862
3380,-0.006713871844112873,-0.011901863850653172,0.9737555980682373,0.22711198031902313,-0.07812502980232239,-0.19140632450580597,9.613285064697266,0.0,0.003906252793967724,0.001953126396983862
3385,-0.006713871844112873,-0.011901863850653172,0.9737555980682373,0.22711198031902313,-0.07812502980232239,-0.19140632450580597,9.613285064697266,0.001953126396983862,-0.001953126396983862,-0.001953126396983862
3390,-0.006713871844112873,-0.011901863850653172,0.9737555980682373,0.22711198031902313,-0.039062514901161194,-0.19140632450580597,9.613285064697266,0.001953126396983862,-0.001953126396983862,-0.001953126396983862
3395,-0.006713871844112873,-0.011901863850653172,0.9737555980682373,0.22711198031902313,-0.039062514901161194,-0.19140632450580597,9.613285064697266,0.0,0.0,0.0
3401,-0.006713871844112873,-0.011901863850653172,0.9737555980682373,0.22711198031902313,-0.07812502980232239,-0.19140632450580597,9.652347564697266,0.0,0.0,0.0
3405,-0.006713871844112873,-0.011901863850653172,0.9737555980682373,0.22711198031902313,-0.11328128725290298,-0.23046883940696716,9.539066314697266,0.0,0.0,0.0
3410,-0.006713871844112873,-0.011901863850653172,0.9737555980682373,0.22711198031902313,-0.039062514901161194,-0.26953133940696716,9.582035064697266,0.0,0.0,0.0
3416,-0.006591801531612873,-0.011840828694403172,0.9737555980682373,0.22705094516277313,-0.039062514901161194,-0.26953133940696716,9.582035064697266,0.0,0.0,0.0
3422,-0.006591801531612873,-0.011840828694403172,0.9737555980682373,0.22705094516277313,-0.07812502980232239,-0.23046883940696716,9.613285064697266,0.0,0.0,0.0
3427,-0.006591801531612873,-0.011840828694403172,0.9737555980682373,0.22705094516277313,-0.11328128725290298,-0.23046883940696716,9.652347564697266,0.0,0.0,0.0
3432,-0.006591801531612873,-0.011840828694403172,0.9737555980682373,0.22705094516277313,-0.11328128725290298,-0.23046883940696716,9.652347564697266,0.0,0.0,0.001953126396983862
3437,-0.006591801531612873,-0.011840828694403172,0.9737555980682373,0.22705094516277313,-0.07812502980232239,-0.23046883940696716,9.613285064697266,0.0,0.0,0.001953126396983862
3442,-0.006591801531612873,-0.011840828694403172,0.9737555980682373,0.22705094516277313,-0.07812502980232239,-0.23046883940696716,9.613285064697266,-0.001953126396983862,0.0,0.001953126396983862
3447,-0.006591801531612873,-0.011840828694403172,0.9737555980682373,0.22705094516277313,-0.07812502980232239,-0.23046883940696716,9.613285064697266,-0.001953126396983862,0.0,0.001953126396983862
3452,-0.006591801531612873,-0.011840828694403172,0.9737555980682373,0.22705094516277313,-0.07812502980232239,-0.23046883940696716,9.578128814697266,-0.001953126396983862,0.0,0.001953126396983862
3458,-0.006591801531612873,-0.011840828694403172,0.9737555980682373,0.22705094516277313,-0.07812502980232239,-0.23046883940696716,9.539066314697266,-0.001953126396983862,0.0,0.001953126396983862
3463,-0.006591801531612873,-0.011840828694403172,0.9737555980682373,0.22705094516277313,-0.07812502980232239,-0.23046883940696716,9.539066314697266,-0.003906252793967724,0.003906252793967724,0.0
3468,-0.006591801531612873,-0.011840828694403172,0.9737555980682373,0.22705094516277313,-0.07812502980232239,-0.26953133940696716,9.582035064697266,-0.003906252793967724,0.003906252793967724,0.0
3473,-0.006591801531612873,-0.011840828694403172,0.9737555980682373,0.22705094516277313,-0.07812502980232239,-0.26953133940696716,9.582035064697266,-0.001953126396983862,0.001953126396983862,0.0
3478,-0.006591801531612873,-0.011840828694403172,0.9737555980682373,0.22705094516277313,-0.07812502980232239,-0.26953133940696716,9.609378814697266,-0.001953126396983862,0.001953126396983862,0.0
3483,-0.006591801531612873,-0.011840828694403172,0.9737555980682373,0.22705094516277313,-0.07812502980232239,-0.26953133940696716,9.609378814697266,0.001953126396983862,-0.001953126396983862,-0.001953126396983862
3488,-0.006591801531612873,-0.011840828694403172,0.9737555980682373,0.22705094516277313,-0.07812502980232239,-0.26953133940696716,9.648441314697266,0.001953126396983862,-0.001953126396983862,-0.001953126396983862
3493,-0.006591801531612873,-0.011840828694403172,0.9737555980682373,0.22705094516277313,-0.07812502980232239,-0.26953133940696716,9.648441314697266,-0.003906252793967724,0.0,0.0
3499,-0.006591801531612873,-0.011840828694403172,0.9737555980682373,0.22705094516277313,-0.07812502980232239,-0.26953133940696716,9.609378814697266,-0.003906252793967724,0.0,0.0
3504,-0.006591801531612873,-0.011840828694403172,0.9737555980682373,0.22705094516277313,-0.07812502980232239,-0.26953133940696716,9.609378814697266,-0.001953126396983862,-0.001953126396983862,-0.001953126396983862
3509,-0.006591801531612873,-0.011840828694403172,0.9737555980682373,0.22705094516277313,-0.07812502980232239,-0.30468761920928955,9.652347564697266,-0.001953126396983862,-0.001953126396983862,-0.001953126396983862
3514,-0.006591801531612873,-0.011840828694403172,0.9737555980682373,0.22705094516277313,-0.07812502980232239,-0.30468761920928955,9.652347564697266,0.0,0.003906252793967724,-0.001953126396983862
3519,-0.006591801531612873,-0.011840828694403172,0.9737555980682373,0.22705094516277313,-0.11328128725290298,-0.26953133940696716,9.648441314697266,0.0,0.003906252793967724,-0.001953126396983862
3524,-0.006591801531612873,-0.011840828694403172,0.9737555980682373,0.22705094516277313,-0.11328128725290298,-0.26953133940696716,9.648441314697266,0.0,0.001953126396983862,0.0
3530,-0.006591801531612873,-0.011840828694403172,0.9737555980682373,0.22705094516277313,-0.07812502980232239,-0.23046883940696716,9.613285064697266,0.0,0.001953126396983862,0.0
3535,-0.006591801531612873,-0.011840828694403172,0.9737555980682373,0.22705094516277313,-0.039062514901161194,-0.23046883940696716,9.613285064697266,0.0,0.001953126396983862,0.0
3539,-0.006591801531612873,-0.011840828694403172,0.9737555980682373,0.22705094516277313,-0.039062514901161194,-0.23046883940696716,9.613285064697266,-0.001953126396983862,0.0,0.001953126396983862
3545,-0.006469731219112873,-0.011840828694403172,0.9737555980682373,0.22711198031902313,-0.039062514901161194,-0.23046883940696716,9.613285064697266,-0.001953126396983862,0.0,0.001953126396983862
3550,-0.006469731219112873,-0.011840828694403172,0.9737555980682373,0.22711198031902313,-0.039062514901161194,-0.23046883940696716,9.613285064697266,-0.001953126396983862,0.0,0.001953126396983862
3555,-0.006469731219112873,-0.011840828694403172,0.9737555980682373,0.22711198031902313,-0.07812502980232239,-0.19140632450580597,9.613285064697266,-0.001953126396983862,0.0,0.001953126396983862
3561,-0.006469731219112873,-0.011840828694403172,0.9737555980682373,0.22711198031902313,-0.07812502980232239,-0.19140632450580597,9.613285064697266,0.0,0.0,0.0
3567,-0.006469731219112873,-0.011840828694403172,0.9737555980682373,0.22711198031902313,-0.039062514901161194,-0.19140632450580597,9.539066314697266,0.0,0.0,0.0
3572,-0.006469731219112873,-0.011840828694403172,0.9737555980682373,0.22711198031902313,-0.039062514901161194,-0.19140632450580597,9.539066314697266,0.0,0.0,0.0
3577,-0.006469731219112873,-0.011840828694403172,0.9737555980682373,0.22711198031902313,-0.07812502980232239,-0.26953133940696716,9.582035064697266,0.0,0.0,0.0
3582,-0.006469731219112873,-0.011840828694403172,0.9737555980682373,0.22711198031902313,-0.07812502980232239,-0.26953133940696716,9.582035064697266,0.0,0.0,0.0
3588,-0.006469731219112873,-0.011840828694403172,0.9737555980682373,0.22711198031902313,-0.07812502980232239,-0.19140632450580597,9.652347564697266,0.0,0.0,0.0
3594,-0.006469731219112873,-0.011840828694403172,0.9737555980682373,0.22711198031902313,-0.07812502980232239,-0.19140632450580597,9.652347564697266,0.0,0.0,0.0
3598,-0.006469731219112873,-0.011840828694403172,0.9737555980682373,0.22711198031902313,-0.11328128725290298,-0.23046883940696716,9.613285064697266,0.0,0.0,0.0
3604,-0.006469731219112873,-0.011840828694403172,0.9737555980682373,0.22711198031902313,-0.11328128725290298,-0.23046883940696716,9.613285064697266,0.0,0.0,0.0
3609,-0.006469731219112873,-0.011840828694403172,0.9737555980682373,0.22711198031902313,-0.039062514901161194,-0.23046883940696716,9.613285064697266,0.0,0.0,0.0
3615,-0.006469731219112873,-0.011840828694403172,0.9737555980682373,0.22711198031902313,-0.07812502980232239,-0.26953133940696716,9.582035064697266,0.0,0.0,0.0
3620,-0.006469731219112873,-0.011840828694403172,0.9737555980682373,0.22711198031902313,-0.07812502980232239,-0.26953133940696716,9.582035064697266,0.0,0.0,0.0
3624,-0.006469731219112873,-0.011840828694403172,0.9737555980682373,0.22711198031902313,-0.07812502980232239,-0.26953133940696716,9.648441314697266,0.0,0.0,0.0
3631,-0.006469731219112873,-0.011840828694403172,0.9737555980682373,0.22711198031902313,-0.11328128725290298,-0.23046883940696716,9.613285064697266,0.0,0.0,0.0
3636,-0.006469731219112873,-0.011840828694403172,0.9737555980682373,0.22711198031902313,-0.039062514901161194,-0.23046883940696716,9.613285064697266,0.0,0.0,0.0
3641,-0.006469731219112873,-0.011840828694403172,0.9737555980682373,0.22711198031902313,-0.039062514901161194,-0.23046883940696716,9.613285064697266,0.0,0.0,0.0
3646,-0.006469731219112873,-0.011840828694403172,0.9737555980682373,0.22711198031902313,-0.07812502980232239,-0.23046883940696716,9.613285064697266,0.0,0.0,0.0
3651,-0.006469731219112873,-0.011840828694403172,0.9737555980682373,0.22711198031902313,-0.07812502980232239,-0.23046883940696716,9.613285064697266,0.0,0.0,0.0
3656,-0.006469731219112873,-0.011840828694403172,0.9737555980682373,0.22711198031902313,-0.07812502980232239,-0.26953133940696716,9.582035064697266,0.0,0.0,0.0
3662,-0.006469731219112873,-0.011840828694403172,0.9737555980682373,0.22711198031902313,-0.07812502980232239,-0.26953133940696716,9.582035064697266,0.0,0.0,0.0
3668,-0.006469731219112873,-0.011840828694403172,0.9737555980682373,0.22711198031902313,-0.07812502980232239,-0.26953133940696716,9.609378814697266,0.0,0.0,0.0
3674,-0.006469731219112873,-0.011840828694403172,0.9737555980682373,0.22711198031902313,-0.07812502980232239,-0.26953133940696716,9.582035064697266,0.0,0.0,0.0
3680,-0.006469731219112873,-0.011840828694403172,0.9737555980682373,0.22711198031902313,-0.07812502980232239,-0.26953133940696716,9.609378814697266,0.0,0.0,0.0
3685,-0.006469731219112873,-0.011840828694403172,0.9737555980682373,0.22711198031902313,-0.11328128725290298,-0.19140632450580597,9.578128814697266,0.0,0.0,0.0
3690,-0.006469731219112873,-0.011840828694403172,0.9737555980682373,0.22711198031902313,-0.11328128725290298,-0.19140632450580597,9.578128814697266,0.0,0.0,0.0
3695,-0.006469731219112873,-0.011840828694403172,0.9737555980682373,0.22711198031902313,-0.11328128725290298,-0.26953133940696716,9.609378814697266,0.0,0.0,0.0
3700,-0.006469731219112873,-0.011840828694403172,0.9737555980682373,0.22711198031902313,-0.11328128725290298,-0.26953133940696716,9.609378814697266,0.0,0.0,0.0
3705,-0.006469731219112873,-0.011840828694403172,0.9737555980682373,0.22711198031902313,-0.07812502980232239,-0.26953133940696716,9.582035064697266,0.0,0.0,0.0
3710,-0.006469731219112873,-0.011840828694403172,0.9737555980682373,0.22711198031902313,-0.07812502980232239,-0.26953133940696716,9.582035064697266,0.0,0.0,0.0
3716,-0.006469731219112873,-0.011840828694403172,0.9737555980682373,0.22711198031902313,-0.07812502980232239,-0.19140632450580597,9.539066314697266,0.0,0.0,0.0
3722,-0.006469731219112873,-0.011840828694403172,0.9737555980682373,0.22711198031902313,-0.07812502980232239,-0.19140632450580597,9.539066314697266,0.0,0.0,0.0
3727,-0.006469731219112873,-0.011840828694403172,0.9737555980682373,0.22711198031902313,-0.07812502980232239,-0.23046883940696716,9.578128814697266,0.0,0.0,0.0
3733,-0.006408696062862873,-0.011779793538153172,0.9737555980682373,0.22711198031902313,-0.07812502980232239,-0.23046883940696716,9.578128814697266,0.0,0.0,0.0
3738,-0.006408696062862873,-0.011779793538153172,0.9737555980682373,0.22711198031902313,-0.07812502980232239,-0.23046883940696716,9.578128814697266,0.0,0.0,0.0
3742,-0.006408696062862873,-0.011779793538153172,0.9737555980682373,0.22711198031902313,-0.07812502980232239,-0.23046883940696716,9.578128814697266,0.0,0.0,0.0
3747,-0.006408696062862873,-0.011779793538153172,0.9737555980682373,0.22711198031902313,-0.07812502980232239,-0.23046883940696716,9.578128814697266,0.0,0.0,0.0
3753,-0.006408696062862873,-0.011779793538153172,0.9737555980682373,0.22711198031902313,-0.039062514901161194,-0.26953133940696716,9.609378814697266,0.0,0.0,0.0
3759,-0.006408696062862873,-0.011779793538153172,0.9737555980682373,0.22711198031902313,-0.039062514901161194,-0.26953133940696716,9.609378814697266,0.0,0.0,0.0
3764,-0.006408696062862873,-0.011779793538153172,0.9737555980682373,0.22711198031902313,-0.11328128725290298,-0.23046883940696716,9.613285064697266,0.0,0.0,0.0
3770,-0.006408696062862873,-0.011779793538153172,0.9737555980682373,0.22711198031902313,-0.11328128725290298,-0.23046883940696716,9.613285064697266,0.0,0.0,0.0
3775,-0.006408696062862873,-0.011779793538153172,0.9737555980682373,0.22711198031902313,-0.039062514901161194,-0.23046883940696716,9.578128814697266,0.0,0.0,0.0
3780,-0.006408696062862873,-0.011779793538153172,0.9737555980682373,0.22711198031902313,-0.039062514901161194,-0.23046883940696716,9.578128814697266,0.0,0.0,0.0
3785,-0.006408696062862873,-0.011779793538153172,0.9737555980682373,0.22711198031902313,-0.07812502980232239,-0.19140632450580597,9.613285064697266,0.0,0.0,0.0
3790,-0.006408696062862873,-0.011779793538153172,0.9737555980682373,0.22711198031902313,-0.07812502980232239,-0.19140632450580597,9.613285064697266,0.0,0.0,0.0
3795,-0.006408696062862873,-0.011779793538153172,0.9737555980682373,0.22711198031902313,-0.07812502980232239,-0.23046883940696716,9.652347564697266,0.0,0.0,0.0
3801,-0.006408696062862873,-0.011779793538153172,0.9737555980682373,0.22711198031902313,-0.07812502980232239,-0.23046883940696716,9.652347564697266,0.0,0.0,0.0
3806,-0.006408696062862873,-0.011779793538153172,0.9737555980682373,0.22711198031902313,-0.07812502980232239,-0.23046883940696716,9.613285064697266,0.0,0.0,0.0
3811,-0.006408696062862873,-0.011779793538153172,0.9737555980682373,0.22711198031902313,-0.07812502980232239,-0.23046883940696716,9.613285064697266,0.0,0.0,0.0
3817,-0.006408696062862873,-0.011779793538153172,0.9737555980682373,0.22711198031902313,-0.039062514901161194,-0.23046883940696716,9.613285064697266,0.0,0.0,0.0
3822,-0.006408696062862873,-0.011779793538153172,0.9737555980682373,0.22711198031902313,-0.07812502980232239,-0.26953133940696716,9.609378814697266,0.0,0.0,0.0
3827,-0.006408696062862873,-0.011779793538153172,0.9737555980682373,0.22711198031902313,-0.07812502980232239,-0.26953133940696716,9.609378814697266,0.0,0.0,0.0
3832,-0.006408696062862873,-0.011779793538153172,0.9737555980682373,0.22711198031902313,-0.07812502980232239,-0.19140632450580597,9.539066314697266,0.0,0.0,0.0
3838,-0.006408696062862873,-0.011779793538153172,0.9737555980682373,0.22711198031902313,-0.07812502980232239,-0.19140632450580597,9.539066314697266,0.0,0.0,0.0
3844,-0.006408696062862873,-0.011779793538153172,0.9737555980682373,0.22711198031902313,-0.07812502980232239,-0.30468761920928955,9.578128814697266,0.0,0.0,0.0
3849,-0.006408696062862873,-0.011779793538153172,0.9737555980682373,0.22711198031902313,-0.07812502980232239,-0.30468761920928955,9.578128814697266,0.0,0.0,0.0
3854,-0.006408696062862873,-0.011779793538153172,0.9737555980682373,0.22711198031902313,-0.07812502980232239,-0.26953133940696716,9.609378814697266,0.0,0.0,0.0
3859,-0.006408696062862873,-0.011779793538153172,0.9737555980682373,0.22711198031902313,-0.07812502980232239,-0.26953133940696716,9.609378814697266,0.0,0.0,0.0
3864,-0.006408696062862873,-0.011779793538153172,0.9737555980682373,0.22711198031902313,-0.07812502980232239,-0.26953133940696716,9.609378814697266,0.0,0.0,0.0
3870,-0.006408696062862873,-0.011779793538153172,0.9737555980682373,0.22711198031902313,-0.07812502980232239,-0.26953133940696716,9.609378814697266,0.0,0.0,0.0
3874,-0.006408696062862873,-0.011779793538153172,0.9737555980682373,0.22711198031902313,-0.07812502980232239,-0.26953133940696716,9.582035064697266,0.0,0.0,0.0
3879,-0.006408696062862873,-0.011779793538153172,0.9737555980682373,0.22711198031902313,-0.07812502980232239,-0.26953133940696716,9.582035064697266,0.0,0.0,0.0
3885,-0.006408696062862873,-0.011779793538153172,0.9737555980682373,0.22711198031902313,-0.07812502980232239,-0.26953133940696716,9.609378814697266,0.0,0.0,0.0
3891,-0.006408696062862873,-0.011779793538153172,0.9737555980682373,0.22711198031902313,-0.07812502980232239,-0.26953133940696716,9.609378814697266,0.0,0.0,0.0
3896,-0.006408696062862873,-0.011779793538153172,0.9737555980682373,0.22711198031902313,-0.039062514901161194,-0.26953133940696716,9.609378814697266,0.0,0.0,0.0
3901,-0.006408696062862873,-0.011779793538153172,0.9737555980682373,0.22711198031902313,-0.07812502980232239,-0.30468761920928955,9.613285064697266,0.0,0.0,0.0
3907,-0.006408696062862873,-0.011779793538153172,0.9737555980682373,0.22711198031902313,-0.07812502980232239,-0.30468761920928955,9.613285064697266,0.0,0.0,0.0
3912,-0.006408696062862873,-0.011779793538153172,0.9737555980682373,0.22711198031902313,-0.07812502980232239,-0.26953133940696716,9.582035064697266,0.0,0.0,0.0
3917,-0.006408696062862873,-0.011779793538153172,0.9737555980682373,0.22711198031902313,-0.07812502980232239,-0.26953133940696716,9.582035064697266,0.0,0.0,0.0
3922,-0.006408696062862873,-0.011779793538153172,0.9737555980682373,0.22711198031902313,-0.039062514901161194,-0.23046883940696716,9.578128814697266,0.0,0.0,0.0
3928,-0.006408696062862873,-0.011779793538153172,0.9737555980682373,0.22711198031902313,-0.039062514901161194,-0.23046883940696716,9.578128814697266,0.0,0.0,0.0
3933,-0.006408696062862873,-0.011779793538153172,0.9737555980682373,0.22711198031902313,-0.07812502980232239,-0.19140632450580597,9.578128814697266,0.0,0.0,0.0
3938,-0.006408696062862873,-0.011779793538153172,0.9737555980682373,0.22711198031902313,-0.07812502980232239,-0.19140632450580597,9.578128814697266,0.0,0.0,0.0
3943,-0.006408696062862873,-0.011779793538153172,0.9737555980682373,0.22711198031902313,-0.039062514901161194,-0.23046883940696716,9.652347564697266,0.0,0.0,0.0
3949,-0.006408696062862873,-0.011779793538153172,0.9737555980682373,0.22711198031902313,-0.039062514901161194,-0.23046883940696716,9.652347564697266,0.0,0.0,0.0
3954,-0.006408696062862873,-0.011779793538153172,0.9737555980682373,0.22711198031902313,-0.07812502980232239,-0.26953133940696716,9.609378814697266,0.0,0.0,0.0
3960,-0.006408696062862873,-0.011779793538153172,0.9737555980682373,0.22711198031902313,-0.07812502980232239,-0.26953133940696716,9.609378814697266,0.0,0.0,0.0
3966,-0.006408696062862873,-0.011779793538153172,0.9737555980682373,0.22711198031902313,-0.07812502980232239,-0.19140632450580597,9.652347564697266,0.0,0.0,0.0
3972,-0.006408696062862873,-0.011779793538153172,0.9737555980682373,0.22711198031902313,-0.07812502980232239,-0.23046883940696716,9.652347564697266,0.0,0.0,0.0
3977,-0.006408696062862873,-0.011779793538153172,0.9737555980682373,0.22711198031902313,-0.07812502980232239,-0.23046883940696716,9.652347564697266,0.0,0.0,0.0
3982,-0.006408696062862873,-0.011779793538153172,0.9737555980682373,0.22711198031902313,-0.07812502980232239,-0.19140632450580597,9.613285064697266,0.0,0.0,0.0
3987,-0.006408696062862873,-0.011779793538153172,0.9737555980682373,0.22711198031902313,-0.07812502980232239,-0.19140632450580597,9.613285064697266,0.0,0.0,0.0
3992,-0.006408696062862873,-0.011779793538153172,0.9737555980682373,0.22711198031902313,-0.039062514901161194,-0.23046883940696716,9.613285064697266,0.0,0.0,0.0
3997,-0.006408696062862873,-0.011779793538153172,0.9737555980682373,0.22711198031902313,-0.039062514901161194,-0.23046883940696716,9.613285064697266,0.0,0.0,0.0
4002,-0.006408696062862873,-0.011779793538153172,0.9737555980682373,0.22711198031902313,-0.039062514901161194,-0.23046883940696716,9.613285064697266,0.0,0.0,0.0
4007,-0.006347660906612873,-0.011657723225653172,0.9737555980682373,0.22711198031902313,-0.039062514901161194,-0.23046883940696716,9.613285064697266,0.0,0.0,0.0
4013,-0.006347660906612873,-0.011657723225653172,0.9737555980682373,0.22711198031902313,-0.11328128725290298,-0.23046883940696716,9.613285064697266,0.0,0.0,0.0
4018,-0.006347660906612873,-0.011657723225653172,0.9737555980682373,0.22711198031902313,-0.11328128725290298,-0.23046883940696716,9.613285064697266,0.0,0.0,0.0
4023,-0.006347660906612873,-0.011657723225653172,0.9737555980682373,0.22711198031902313,-0.07812502980232239,-0.26953133940696716,9.609378814697266,0.0,0.0,0.0
4028,-0.006347660906612873,-0.011657723225653172,0.9737555980682373,0.22711198031902313,-0.07812502980232239,-0.26953133940696716,9.609378814697266,0.0,0.0,0.0
4032,-0.006347660906612873,-0.011657723225653172,0.9737555980682373,0.22711198031902313,-0.07812502980232239,-0.23046883940696716,9.613285064697266,0.0,0.0,0.0
4038,-0.006347660906612873,-0.011657723225653172,0.9737555980682373,0.22711198031902313,-0.07812502980232239,-0.23046883940696716,9.613285064697266,0.0,0.0,0.0
4044,-0.006347660906612873,-0.011657723225653172,0.9737555980682373,0.22711198031902313,-0.039062514901161194,-0.26953133940696716,9.648441314697266,0.0,0.0,0.0
4049,-0.006347660906612873,-0.011657723225653172,0.9737555980682373,0.22711198031902313,-0.039062514901161194,-0.30468761920928955,9.578128814697266,0.0,0.0,0.0
4056,-0.006347660906612873,-0.011657723225653172,0.9737555980682373,0.22711198031902313,-0.039062514901161194,-0.30468761920928955,9.578128814697266,0.0,0.0,0.0
4061,-0.006347660906612873,-0.011657723225653172,0.9737555980682373,0.22711198031902313,-0.11328128725290298,-0.23046883940696716,9.652347564697266,0.0,0.0,0.0
4066,-0.006347660906612873,-0.011657723225653172,0.9737555980682373,0.22711198031902313,-0.11328128725290298,-0.23046883940696716,9.652347564697266,0.0,0.0,0.0
4071,-0.006347660906612873,-0.011657723225653172,0.9737555980682373,0.22711198031902313,-0.039062514901161194,-0.23046883940696716,9.578128814697266,0.0,0.0,0.0
4076,-0.006347660906612873,-0.011657723225653172,0.9737555980682373,0.22711198031902313,-0.039062514901161194,-0.23046883940696716,9.578128814697266,0.0,0.0,0.0
4081,-0.006347660906612873,-0.011657723225653172,0.9737555980682373,0.22711198031902313,-0.07812502980232239,-0.26953133940696716,9.609378814697266,0.0,0.0,0.0
4086,-0.006347660906612873,-0.011657723225653172,0.9737555980682373,0.22711198031902313,-0.07812502980232239,-0.26953133940696716,9.609378814697266,0.0,0.0,0.0
4091,-0.006347660906612873,-0.011657723225653172,0.9737555980682373,0.22711198031902313,-0.07812502980232239,-0.23046883940696716,9.613285064697266,0.0,0.0,0.0
4097,-0.006347660906612873,-0.011657723225653172,0.9737555980682373,0.22711198031902313,-0.07812502980232239,-0.23046883940696716,9.613285064697266,0.0,0.0,0.0
4102,-0.006347660906612873,-0.011657723225653172,0.9737555980682373,0.22711198031902313,-0.07812502980232239,-0.26953133940696716,9.582035064697266,0.0,0.0,0.0
4108,-0.006347660906612873,-0.011657723225653172,0.9737555980682373,0.22711198031902313,-0.07812502980232239,-0.26953133940696716,9.582035064697266,0.0,0.0,0.0
4114,-0.006347660906612873,-0.011657723225653172,0.9737555980682373,0.22711198031902313,-0.07812502980232239,-0.26953133940696716,9.582035064697266,0.0,0.0,0.0
4118,-0.006347660906612873,-0.011657723225653172,0.9737555980682373,0.22711198031902313,-0.039062514901161194,-0.26953133940696716,9.609378814697266,0.0,0.0,0.0
4124,-0.006347660906612873,-0.011657723225653172,0.9737555980682373,0.22711198031902313,-0.07812502980232239,-0.26953133940696716,9.609378814697266,0.0,0.0,0.0
4129,-0.006347660906612873,-0.011657723225653172,0.9737555980682373,0.22711198031902313,-0.039062514901161194,-0.23046883940696716,9.613285064697266,0.0,0.0,0.0
4134,-0.006347660906612873,-0.011657723225653172,0.9737555980682373,0.22711198031902313,-0.039062514901161194,-0.23046883940696716,9.613285064697266,0.0,0.0,0.0
4141,-0.006347660906612873,-0.011657723225653172,0.9737555980682373,0.22711198031902313,-0.039062514901161194,-0.26953133940696716,9.648441314697266,0.0,0.0,0.0
4146,-0.006347660906612873,-0.011657723225653172,0.9737555980682373,0.22711198031902313,-0.039062514901161194,-0.26953133940696716,9.648441314697266,0.0,0.0,0.0
4151,-0.006347660906612873,-0.011657723225653172,0.9737555980682373,0.22711198031902313,-0.11328128725290298,-0.19140632450580597,9.652347564697266,0.0,0.0,0.0
4156,-0.006347660906612873,-0.011657723225653172,0.9737555980682373,0.22711198031902313,-0.11328128725290298,-0.19140632450580597,9.652347564697266,0.0,0.0,0.0
4162,-0.006347660906612873,-0.011657723225653172,0.9737555980682373,0.22711198031902313,-0.07812502980232239,-0.26953133940696716,9.609378814697266,0.0,0.0,0.0
4167,-0.006286625750362873,-0.011657723225653172,0.9737555980682373,0.22711198031902313,-0.07812502980232239,-0.26953133940696716,9.609378814697266,0.0,0.0,0.0
4172,-0.006286625750362873,-0.011657723225653172,0.9737555980682373,0.22711198031902313,-0.039062514901161194,-0.23046883940696716,9.652347564697266,0.0,0.0,0.0
4178,-0.006286625750362873,-0.011657723225653172,0.9737555980682373,0.22711198031902313,-0.039062514901161194,-0.23046883940696716,9.652347564697266,0.0,0.0,0.0
4184,-0.006286625750362873,-0.011657723225653172,0.9737555980682373,0.22711198031902313,-0.07812502980232239,-0.26953133940696716,9.609378814697266,0.0,0.0,0.0
4189,-0.006286625750362873,-0.011657723225653172,0.9737555980682373,0.22711198031902313,-0.039062514901161194,-0.23046883940696716,9.652347564697266,0.0,0.0,0.0
4194,-0.006286625750362873,-0.011657723225653172,0.9737555980682373,0.22711198031902313,-0.039062514901161194,-0.23046883940696716,9.652347564697266,0.0,0.0,0.0
4200,-0.006286625750362873,-0.011657723225653172,0.9737555980682373,0.22711198031902313,-0.07812502980232239,-0.19140632450580597,9.613285064697266,0.0,0.0,0.0
4206,-0.006286625750362873,-0.011657723225653172,0.9737555980682373,0.22711198031902313,-0.07812502980232239,-0.19140632450580597,9.613285064697266,0.0,0.0,0.0
4210,-0.006286625750362873,-0.011657723225653172,0.9737555980682373,0.22711198031902313,-0.039062514901161194,-0.26953133940696716,9.609378814697266,0.0,0.0,0.0
4215,-0.006286625750362873,-0.011657723225653172,0.9737555980682373,0.22711198031902313,-0.039062514901161194,-0.26953133940696716,9.609378814697266,0.0,0.0,0.0
4220,-0.006286625750362873,-0.011657723225653172,0.9737555980682373,0.22711198031902313,-0.039062514901161194,-0.19140632450580597,9.613285064697266,0.0,0.0,0.0
4226,-0.006286625750362873,-0.011657723225653172,0.9737555980682373,0.22711198031902313,-0.039062514901161194,-0.19140632450580597,9.613285064697266,0.0,0.0,0.0
4230,-0.006286625750362873,-0.011657723225653172,0.9737555980682373,0.22711198031902313,-0.07812502980232239,-0.23046883940696716,9.687503814697266,0.0,0.0,0.0
4236,-0.006286625750362873,-0.011657723225653172,0.9737555980682373,0.22711198031902313,-0.07812502980232239,-0.23046883940696716,9.687503814697266,0.0,0.0,0.0
4241,-0.006286625750362873,-0.011657723225653172,0.9737555980682373,0.22711198031902313,-0.11328128725290298,-0.19140632450580597,9.613285064697266,0.0,0.0,0.0
4246,-0.006286625750362873,-0.011657723225653172,0.9737555980682373,0.22711198031902313,-0.11328128725290298,-0.19140632450580597,9.613285064697266,0.0,0.0,0.0
4252,-0.006286625750362873,-0.011657723225653172,0.9737555980682373,0.22711198031902313,-0.039062514901161194,-0.23046883940696716,9.652347564697266,0.0,0.0,0.0
4257,-0.006286625750362873,-0.011657723225653172,0.9737555980682373,0.22711198031902313,-0.039062514901161194,-0.23046883940696716,9.613285064697266,0.0,0.0,0.0
4262,-0.006286625750362873,-0.011657723225653172,0.9737555980682373,0.22711198031902313,-0.07812502980232239,-0.26953133940696716,9.582035064697266,0.0,0.0,0.0
4269,-0.006286625750362873,-0.011657723225653172,0.9737555980682373,0.22711198031902313,-0.039062514901161194,-0.30468761920928955,9.578128814697266,0.0,0.0,0.0
4274,-0.006286625750362873,-0.011657723225653172,0.9737555980682373,0.22711198031902313,-0.039062514901161194,-0.30468761920928955,9.578128814697266,0.0,0.0,0.0
4279,-0.006286625750362873,-0.011657723225653172,0.9737555980682373,0.22711198031902313,-0.07812502980232239,-0.23046883940696716,9.613285064697266,0.0,0.0,0.0
4284,-0.006286625750362873,-0.011657723225653172,0.9737555980682373,0.22711198031902313,-0.07812502980232239,-0.23046883940696716,9.613285064697266,0.0,0.0,0.0
4289,-0.006286625750362873,-0.011657723225653172,0.9737555980682373,0.22711198031902313,-0.07812502980232239,-0.26953133940696716,9.648441314697266,0.0,0.0,0.0
4294,-0.006286625750362873,-0.011657723225653172,0.9737555980682373,0.22711198031902313,-0.07812502980232239,-0.26953133940696716,9.648441314697266,0.0,0.0,0.0
4300,-0.006286625750362873,-0.011657723225653172,0.9737555980682373,0.22711198031902313,-0.07812502980232239,-0.26953133940696716,9.648441314697266,0.0,0.0,0.0
4306,-0.006225590594112873,-0.011657723225653172,0.9737555980682373,0.22711198031902313,-0.07812502980232239,-0.26953133940696716,9.648441314697266,0.0,0.0,0.0
4312,-0.006225590594112873,-0.011657723225653172,0.9737555980682373,0.22711198031902313,-0.07812502980232239,-0.26953133940696716,9.648441314697266,0.0,0.0,0.0
4316,-0.006225590594112873,-0.011657723225653172,0.9737555980682373,0.22711198031902313,-0.07812502980232239,-0.26953133940696716,9.609378814697266,0.0,0.0,0.0
4321,-0.006225590594112873,-0.011657723225653172,0.9737555980682373,0.22711198031902313,-0.07812502980232239,-0.26953133940696716,9.609378814697266,0.0,0.0,0.0
4327,-0.006225590594112873,-0.011657723225653172,0.9737555980682373,0.22711198031902313,-0.11328128725290298,-0.26953133940696716,9.648441314697266,0.0,0.0,0.0
4332,-0.006225590594112873,-0.011657723225653172,0.9737555980682373,0.22711198031902313,-0.11328128725290298,-0.26953133940696716,9.648441314697266,0.0,0.0,0.0
4338,-0.006225590594112873,-0.011657723225653172,0.9737555980682373,0.22711198031902313,-0.039062514901161194,-0.26953133940696716,9.609378814697266,0.0,0.0,0.0
4343,-0.006225590594112873,-0.011657723225653172,0.9737555980682373,0.22711198031902313,-0.039062514901161194,-0.26953133940696716,9.609378814697266,0.0,0.0,0.0
4348,-0.006225590594112873,-0.011657723225653172,0.9737555980682373,0.22711198031902313,-0.07812502980232239,-0.26953133940696716,9.609378814697266,0.0,0.0,0.0
4354,-0.006225590594112873,-0.011657723225653172,0.9737555980682373,0.22711198031902313,-0.07812502980232239,-0.26953133940696716,9.609378814697266,0.0,0.0,0.0
4359,-0.006225590594112873,-0.011657723225653172,0.9737555980682373,0.22711198031902313,-0.07812502980232239,-0.23046883940696716,9.578128814697266,0.0,0.0,0.0
4365,-0.006225590594112873,-0.011596688069403172,0.9737555980682373,0.22711198031902313,-0.07812502980232239,-0.23046883940696716,9.578128814697266,0.0,0.0,0.0
4369,-0.006225590594112873,-0.011596688069403172,0.9737555980682373,0.22711198031902313,-0.07812502980232239,-0.19140632450580597,9.687503814697266,0.0,0.0,0.0
4375,-0.006225590594112873,-0.011596688069403172,0.9737555980682373,0.22711198031902313,-0.07812502980232239,-0.19140632450580597,9.687503814697266,0.0,0.0,0.0
4381,-0.006225590594112873,-0.011596688069403172,0.9737555980682373,0.22711198031902313,-0.039062514901161194,-0.23046883940696716,9.613285064697266,0.0,0.0,0.0
4386,-0.006225590594112873,-0.011596688069403172,0.9737555980682373,0.22711198031902313,-0.07812502980232239,-0.23046883940696716,9.613285064697266,0.0,0.0,0.0
4391,-0.006225590594112873,-0.011596688069403172,0.9737555980682373,0.22711198031902313,-0.07812502980232239,-0.23046883940696716,9.613285064697266,0.0,0.0,0.0
4398,-0.006225590594112873,-0.011596688069403172,0.9737555980682373,0.22711198031902313,-0.039062514901161194,-0.26953133940696716,9.542972564697266,0.0,0.0,0.0
4404,-0.006225590594112873,-0.011596688069403172,0.9737555980682373,0.22711198031902313,-0.039062514901161194,-0.26953133940696716,9.542972564697266,0.0,0.0,0.0
4408,-0.006225590594112873,-0.011596688069403172,0.9737555980682373,0.22711198031902313,-0.039062514901161194,-0.26953133940696716,9.648441314697266,0.0,0.0,0.0
4413,-0.006225590594112873,-0.011596688069403172,0.9737555980682373,0.22711198031902313,-0.039062514901161194,-0.26953133940696716,9.648441314697266,0.0,0.0,0.0
4419,-0.006225590594112873,-0.011596688069403172,0.9737555980682373,0.22711198031902313,-0.07812502980232239,-0.26953133940696716,9.609378814697266,0.0,0.0,0.0
4424,-0.006225590594112873,-0.011596688069403172,0.9737555980682373,0.22711198031902313,-0.07812502980232239,-0.23046883940696716,9.613285064697266,0.0,0.0,0.0
4429,-0.006225590594112873,-0.011596688069403172,0.9737555980682373,0.22711198031902313,-0.07812502980232239,-0.23046883940696716,9.613285064697266,0.0,0.0,0.0
4434,-0.006225590594112873,-0.011596688069403172,0.9737555980682373,0.22711198031902313,-0.11328128725290298,-0.26953133940696716,9.609378814697266,0.0,0.0,0.0
4442,-0.006225590594112873,-0.011596688069403172,0.9737555980682373,0.22711198031902313,-0.07812502980232239,-0.26953133940696716,9.648441314697266,0.0,0.0,0.0
4447,-0.006225590594112873,-0.011596688069403172,0.9737555980682373,0.22711198031902313,-0.07812502980232239,-0.23046883940696716,9.578128814697266,0.0,0.0,0.0
4452,-0.006225590594112873,-0.011596688069403172,0.9737555980682373,0.22711198031902313,-0.07812502980232239,-0.23046883940696716,9.578128814697266,0.0,0.0,0.0
4456,-0.006225590594112873,-0.011596688069403172,0.9737555980682373,0.22711198031902313,-0.07812502980232239,-0.26953133940696716,9.648441314697266,0.0,0.0,0.0
4461,-0.006225590594112873,-0.011596688069403172,0.9737555980682373,0.22711198031902313,-0.07812502980232239,-0.26953133940696716,9.648441314697266,0.0,0.0,0.0
4467,-0.006225590594112873,-0.011596688069403172,0.9737555980682373,0.22711198031902313,-0.039062514901161194,-0.26953133940696716,9.648441314697266,0.0,0.0,0.0
4472,-0.006225590594112873,-0.011596688069403172,0.9737555980682373,0.22711198031902313,-0.039062514901161194,-0.26953133940696716,9.648441314697266,0.0,0.0,0.0
4476,-0.006225590594112873,-0.011596688069403172,0.9737555980682373,0.22711198031902313,-0.039062514901161194,-0.26953133940696716,9.609378814697266,0.0,0.0,0.0
4483,-0.006225590594112873,-0.011596688069403172,0.9737555980682373,0.22711198031902313,-0.039062514901161194,-0.26953133940696716,9.609378814697266,0.0,0.0,0.0
4488,-0.006225590594112873,-0.011596688069403172,0.9737555980682373,0.22711198031902313,-0.039062514901161194,-0.26953133940696716,9.609378814697266,0.0,0.0,0.0
4493,-0.006225590594112873,-0.011596688069403172,0.9737555980682373,0.22711198031902313,-0.039062514901161194,-0.26953133940696716,9.609378814697266,0.0,0.0,0.0
4497,-0.006225590594112873,-0.011596688069403172,0.9737555980682373,0.22711198031902313,-0.039062514901161194,-0.26953133940696716,9.609378814697266,0.0,0.0,0.0
4503,-0.006225590594112873,-0.011596688069403172,0.9737555980682373,0.22711198031902313,-0.039062514901161194,-0.26953133940696716,9.609378814697266,0.0,0.0,0.0
4507,-0.006225590594112873,-0.011596688069403172,0.9737555980682373,0.22711198031902313,-0.039062514901161194,-0.23046883940696716,9.652347564697266,0.0,0.0,0.0
4512,-0.006225590594112873,-0.011596688069403172,0.9737555980682373,0.22711198031902313,-0.039062514901161194,-0.23046883940696716,9.652347564697266,0.0,0.0,0.0
4518,-0.006225590594112873,-0.011596688069403172,0.9737555980682373,0.22711198031902313,-0.15234380960464478,-0.23046883940696716,9.613285064697266,0.0,0.0,0.0
4524,-0.006225590594112873,-0.011596688069403172,0.9737555980682373,0.22711198031902313,-0.15234380960464478,-0.23046883940696716,9.613285064697266,0.0,0.0,0.0
4530,-0.006225590594112873,-0.011596688069403172,0.9737555980682373,0.22711198031902313,-0.15234380960464478,-0.23046883940696716,9.613285064697266,0.0,0.0,0.0
4535,-0.006225590594112873,-0.011596688069403172,0.9737555980682373,0.22711198031902313,-0.07812502980232239,-0.26953133940696716,9.582035064697266,0.0,0.0,0.0
4541,-0.006225590594112873,-0.011596688069403172,0.9737555980682373,0.22711198031902313,-0.07812502980232239,-0.26953133940696716,9.582035064697266,0.0,0.0,0.0
4546,-0.006225590594112873,-0.011596688069403172,0.9737555980682373,0.22711198031902313,-0.07812502980232239,-0.26953133940696716,9.648441314697266,0.0,0.0,0.0
4551,-0.006225590594112873,-0.011596688069403172,0.9737555980682373,0.22711198031902313,-0.07812502980232239,-0.26953133940696716,9.648441314697266,0.0,0.0,0.0
4556,-0.006225590594112873,-0.011596688069403172,0.9737555980682373,0.22711198031902313,-0.039062514901161194,-0.26953133940696716,9.648441314697266,0.0,0.0,0.0
4562,-0.006225590594112873,-0.011596688069403172,0.9737555980682373,0.22711198031902313,-0.039062514901161194,-0.26953133940696716,9.648441314697266,0.0,0.0,0.0
4567,-0.006225590594112873,-0.011596688069403172,0.9737555980682373,0.22711198031902313,-0.039062514901161194,-0.23046883940696716,9.613285064697266,0.0,0.0,0.0
4572,-0.006225590594112873,-0.011596688069403172,0.9737555980682373,0.22711198031902313,-0.039062514901161194,-0.23046883940696716,9.613285064697266,0.0,0.0,0.0
4579,-0.006225590594112873,-0.011596688069403172,0.9737555980682373,0.22711198031902313,-0.07812502980232239,-0.19140632450580597,9.613285064697266,0.0,0.0,0.0
4584,-0.006225590594112873,-0.011596688069403172,0.9737555980682373,0.22711198031902313,-0.039062514901161194,-0.26953133940696716,9.609378814697266,0.0,0.0,0.0
4590,-0.006225590594112873,-0.011596688069403172,0.9737555980682373,0.22711198031902313,-0.039062514901161194,-0.26953133940696716,9.609378814697266,0.0,0.0,0.0
4595,-0.006225590594112873,-0.011596688069403172,0.9737555980682373,0.22711198031902313,-0.07812502980232239,-0.26953133940696716,9.691410064697266,0.0,0.0,0.0
4600,-0.006225590594112873,-0.011596688069403172,0.9737555980682373,0.22711198031902313,-0.07812502980232239,-0.26953133940696716,9.691410064697266,0.0,0.0,0.0
4604,-0.006225590594112873,-0.011596688069403172,0.9737555980682373,0.22711198031902313,-0.11328128725290298,-0.23046883940696716,9.613285064697266,0.0,0.0,0.0
4610,-0.006225590594112873,-0.011596688069403172,0.9737555980682373,0.22711198031902313,-0.11328128725290298,-0.23046883940696716,9.613285064697266,0.0,0.0,0.0
4616,-0.006225590594112873,-0.011596688069403172,0.9737555980682373,0.22711198031902313,-0.11328128725290298,-0.19140632450580597,9.613285064697266,0.0,0.0,0.0
4621,-0.006225590594112873,-0.011596688069403172,0.9737555980682373,0.22711198031902313,-0.11328128725290298,-0.19140632450580597,9.613285064697266,0.0,0.0,0.0
4625,-0.006225590594112873,-0.011596688069403172,0.9737555980682373,0.22711198031902313,-0.07812502980232239,-0.23046883940696716,9.613285064697266,0.0,0.0,0.0
4631,-0.006225590594112873,-0.011596688069403172,0.9737555980682373,0.22711198031902313,-0.07812502980232239,-0.23046883940696716,9.613285064697266,0.0,0.0,0.0
4637,-0.006225590594112873,-0.011596688069403172,0.9737555980682373,0.22711198031902313,-0.07812502980232239,-0.23046883940696716,9.613285064697266,0.0,0.0,0.0
4642,-0.006225590594112873,-0.011596688069403172,0.9737555980682373,0.22711198031902313,-0.07812502980232239,-0.23046883940696716,9.652347564697266,0.0,0.0,0.0
4647,-0.006225590594112873,-0.011596688069403172,0.9737555980682373,0.22711198031902313,-0.07812502980232239,-0.19140632450580597,9.613285064697266,0.0,0.0,0.0
4654,-0.006225590594112873,-0.011596688069403172,0.9737555980682373,0.22711198031902313,-0.07812502980232239,-0.23046883940696716,9.578128814697266,0.0,0.0,0.0
4659,-0.006225590594112873,-0.011596688069403172,0.9737555980682373,0.22711198031902313,-0.07812502980232239,-0.23046883940696716,9.578128814697266,0.0,0.0,0.0
4664,-0.006225590594112873,-0.011596688069403172,0.9737555980682373,0.22711198031902313,-0.039062514901161194,-0.19140632450580597,9.613285064697266,0.0,0.0,0.0
4669,-0.006225590594112873,-0.011596688069403172,0.9737555980682373,0.22711198031902313,-0.039062514901161194,-0.19140632450580597,9.613285064697266,0.0,0.0,0.0
4674,-0.006225590594112873,-0.011596688069403172,0.9737555980682373,0.22711198031902313,-0.07812502980232239,-0.23046883940696716,9.578128814697266,0.0,0.0,0.0
4680,-0.006225590594112873,-0.011596688069403172,0.9737555980682373,0.22711198031902313,-0.07812502980232239,-0.23046883940696716,9.578128814697266,0.0,0.0,0.0
4684,-0.006225590594112873,-0.011596688069403172,0.9737555980682373,0.22711198031902313,-0.07812502980232239,-0.30468761920928955,9.613285064697266,0.0,0.0,0.0
4690,-0.006225590594112873,-0.011596688069403172,0.9737555980682373,0.22711198031902313,-0.07812502980232239,-0.30468761920928955,9.613285064697266,0.0,0.0,0.0
4697,-0.006225590594112873,-0.011596688069403172,0.9737555980682373,0.22711198031902313,-0.039062514901161194,-0.26953133940696716,9.582035064697266,0.0,0.0,0.0
4702,-0.006225590594112873,-0.011596688069403172,0.9737555980682373,0.22711198031902313,-0.039062514901161194,-0.30468761920928955,9.687503814697266,0.0,0.0,0.0
4707,-0.006225590594112873,-0.011596688069403172,0.9737555980682373,0.22711198031902313,-0.039062514901161194,-0.30468761920928955,9.687503814697266,0.0,0.0,0.0
4712,-0.006225590594112873,-0.011596688069403172,0.9737555980682373,0.22711198031902313,-0.07812502980232239,-0.26953133940696716,9.609378814697266,0.0,0.0,0.0
4719,-0.006225590594112873,-0.011596688069403172,0.9737555980682373,0.22711198031902313,-0.039062514901161194,-0.30468761920928955,9.652347564697266,0.0,0.0,0.0
4723,-0.006225590594112873,-0.011596688069403172,0.9737555980682373,0.22711198031902313,-0.07812502980232239,-0.30468761920928955,9.652347564697266,0.0,0.0,0.0
4729,-0.006225590594112873,-0.011596688069403172,0.9737555980682373,0.22711198031902313,-0.07812502980232239,-0.30468761920928955,9.652347564697266,0.0,0.0,0.0
4734,-0.006225590594112873,-0.011596688069403172,0.9737555980682373,0.22711198031902313,-0.07812502980232239,-0.26953133940696716,9.582035064697266,0.0,0.0,0.0
4740,-0.006225590594112873,-0.011596688069403172,0.9737555980682373,0.22711198031902313,-0.07812502980232239,-0.26953133940696716,9.582035064697266,0.0,0.0,0.0
4745,-0.006225590594112873,-0.011596688069403172,0.9737555980682373,0.22711198031902313,-0.07812502980232239,-0.30468761920928955,9.578128814697266,0.0,0.0,0.0
4750,-0.006225590594112873,-0.011596688069403172,0.9737555980682373,0.22711198031902313,-0.07812502980232239,-0.30468761920928955,9.578128814697266,0.0,0.0,0.0
4756,-0.006225590594112873,-0.011596688069403172,0.9737555980682373,0.22711198031902313,-0.07812502980232239,-0.23046883940696716,9.613285064697266,0.0,0.0,0.0
4761,-0.006225590594112873,-0.011596688069403172,0.9737555980682373,0.22711198031902313,-0.07812502980232239,-0.23046883940696716,9.613285064697266,0.0,0.0,0.0
4766,-0.006225590594112873,-0.011596688069403172,0.9737555980682373,0.22711198031902313,-0.07812502980232239,-0.23046883940696716,9.613285064697266,0.0,0.0,0.0
4772,-0.006225590594112873,-0.011596688069403172,0.9737555980682373,0.22711198031902313,-0.07812502980232239,-0.23046883940696716,9.613285064697266,0.0,0.0,0.0
4779,-0.006225590594112873,-0.011596688069403172,0.9737555980682373,0.22711198031902313,-0.07812502980232239,-0.23046883940696716,9.613285064697266,0.0,0.0,0.0
4784,-0.006225590594112873,-0.011596688069403172,0.9737555980682373,0.22711198031902313,-0.07812502980232239,-0.26953133940696716,9.609378814697266,0.0,0.0,0.0
4789,-0.006225590594112873,-0.011596688069403172,0.9737555980682373,0.22711198031902313,-0.07812502980232239,-0.26953133940696716,9.609378814697266,0.0,0.0,0.0
4795,-0.006225590594112873,-0.011596688069403172,0.9737555980682373,0.22711198031902313,-0.07812502980232239,-0.19140632450580597,9.652347564697266,0.0,0.0,0.0
4800,-0.006225590594112873,-0.011596688069403172,0.9737555980682373,0.22711198031902313,-0.039062514901161194,-0.23046883940696716,9.652347564697266,0.0,0.0,0.0
4805,-0.006225590594112873,-0.011596688069403172,0.9737555980682373,0.22711198031902313,-0.039062514901161194,-0.23046883940696716,9.652347564697266,0.0,0.0,0.0
4810,-0.006225590594112873,-0.011596688069403172,0.9737555980682373,0.22711198031902313,-0.07812502980232239,-0.23046883940696716,9.578128814697266,0.0,0.0,0.0
4816,-0.006225590594112873,-0.011596688069403172,0.9737555980682373,0.22711198031902313,-0.07812502980232239,-0.19140632450580597,9.613285064697266,0.0,0.0,0.0
4822,-0.006225590594112873,-0.011596688069403172,0.9737555980682373,0.22711198031902313,-0.039062514901161194,-0.23046883940696716,9.613285064697266,0.0,0.0,0.0
4827,-0.006225590594112873,-0.011596688069403172,0.9737555980682373,0.22711198031902313,-0.039062514901161194,-0.23046883940696716,9.613285064697266,0.0,0.0,0.0
4832,-0.006225590594112873,-0.011596688069403172,0.9737555980682373,0.22711198031902313,-0.07812502980232239,-0.26953133940696716,9.648441314697266,0.0,0.0,0.0
4838,-0.006225590594112873,-0.011596688069403172,0.9737555980682373,0.22711198031902313,-0.07812502980232239,-0.26953133940696716,9.648441314697266,0.0,0.0,0.0
4843,-0.006225590594112873,-0.011596688069403172,0.9737555980682373,0.22711198031902313,-0.039062514901161194,-0.19140632450580597,9.578128814697266,0.0,0.0,0.0
4849,-0.006225590594112873,-0.011596688069403172,0.9737555980682373,0.22711198031902313,-0.039062514901161194,-0.19140632450580597,9.578128814697266,0.0,0.0,0.0
4854,-0.006225590594112873,-0.011596688069403172,0.9737555980682373,0.22711198031902313,-0.07812502980232239,-0.23046883940696716,9.652347564697266,0.0,0.0,0.0
4859,-0.006225590594112873,-0.011596688069403172,0.9737555980682373,0.22711198031902313,-0.07812502980232239,-0.26953133940696716,9.582035064697266,0.0,0.0,0.0
4865,-0.006225590594112873,-0.011596688069403172,0.9737555980682373,0.22711198031902313,-0.07812502980232239,-0.26953133940696716,9.582035064697266,0.0,0.0,0.0
4871,-0.006225590594112873,-0.011596688069403172,0.9737555980682373,0.22711198031902313,-0.07812502980232239,-0.23046883940696716,9.613285064697266,0.0,0.0,0.0
4876,-0.006225590594112873,-0.011596688069403172,0.9737555980682373,0.22711198031902313,-0.07812502980232239,-0.23046883940696716,9.613285064697266,0.0,0.0,0.0
4881,-0.006225590594112873,-0.011596688069403172,0.9737555980682373,0.22711198031902313,-0.039062514901161194,-0.26953133940696716,9.609378814697266,0.0,0.0,0.0
4886,-0.006225590594112873,-0.011596688069403172,0.9737555980682373,0.22711198031902313,-0.039062514901161194,-0.26953133940696716,9.609378814697266,0.0,0.0,0.0
4891,-0.006225590594112873,-0.011596688069403172,0.9737555980682373,0.22711198031902313,-0.039062514901161194,-0.23046883940696716,9.578128814697266,0.0,0.0,0.0
4897,-0.006225590594112873,-0.011596688069403172,0.9737555980682373,0.22711198031902313,-0.039062514901161194,-0.23046883940696716,9.578128814697266,0.0,0.0,0.0
4901,-0.006225590594112873,-0.011596688069403172,0.9737555980682373,0.22711198031902313,-0.039062514901161194,-0.23046883940696716,9.613285064697266,0.0,0.0,0.0
4907,-0.006225590594112873,-0.011596688069403172,0.9737555980682373,0.22711198031902313,-0.039062514901161194,-0.23046883940696716,9.613285064697266,0.0,0.0,0.0
4913,-0.006225590594112873,-0.011596688069403172,0.9737555980682373,0.22711198031902313,-0.11328128725290298,-0.26953133940696716,9.582035064697266,0.0,0.0,0.0
4918,-0.006286625750362873,-0.011474617756903172,0.9737555980682373,0.22711198031902313,-0.11328128725290298,-0.26953133940696716,9.582035064697266,0.0,0.0,0.0
4924,-0.006286625750362873,-0.011474617756903172,0.9737555980682373,0.22711198031902313,-0.11328128725290298,-0.26953133940696716,9.582035064697266,0.0,0.0,0.0
4928,-0.006286625750362873,-0.011474617756903172,0.9737555980682373,0.22711198031902313,-0.11328128725290298,-0.26953133940696716,9.609378814697266,0.0,0.0,0.0
4934,-0.006286625750362873,-0.011474617756903172,0.9737555980682373,0.22711198031902313,-0.07812502980232239,-0.26953133940696716,9.648441314697266,0.0,0.0,0.0
4940,-0.006286625750362873,-0.011474617756903172,0.9737555980682373,0.22711198031902313,-0.039062514901161194,-0.26953133940696716,9.582035064697266,0.0,0.0,0.0
4945,-0.006286625750362873,-0.011474617756903172,0.9737555980682373,0.22711198031902313,-0.039062514901161194,-0.26953133940696716,9.582035064697266,0.0,0.0,0.0
4950,-0.006286625750362873,-0.011474617756903172,0.9737555980682373,0.22711198031902313,-0.07812502980232239,-0.19140632450580597,9.613285064697266,0.0,0.0,0.0
4957,-0.006286625750362873,-0.011474617756903172,0.9737555980682373,0.22711198031902313,-0.07812502980232239,-0.19140632450580597,9.613285064697266,0.0,0.0,0.0
4961,-0.006286625750362873,-0.011474617756903172,0.9737555980682373,0.22711198031902313,-0.11328128725290298,-0.26953133940696716,9.542972564697266,0.0,0.0,0.0
4967,-0.006286625750362873,-0.011474617756903172,0.9737555980682373,0.22711198031902313,-0.11328128725290298,-0.26953133940696716,9.542972564697266,0.0,0.0,0.0
4972,-0.006286625750362873,-0.011474617756903172,0.9737555980682373,0.22711198031902313,-0.07812502980232239,-0.23046883940696716,9.613285064697266,0.0,0.0,0.0
4978,-0.006286625750362873,-0.011474617756903172,0.9737555980682373,0.22711198031902313,-0.07812502980232239,-0.23046883940696716,9.613285064697266,0.0,0.0,0.0
4982,-0.006286625750362873,-0.011474617756903172,0.9737555980682373,0.22711198031902313,-0.07812502980232239,-0.26953133940696716,9.609378814697266,0.0,0.0,0.0
4987,-0.006286625750362873,-0.011474617756903172,0.9737555980682373,0.22711198031902313,-0.07812502980232239,-0.26953133940696716,9.609378814697266,0.0,0.0,0.0
4993,-0.006286625750362873,-0.011474617756903172,0.9737555980682373,0.22711198031902313,-0.039062514901161194,-0.26953133940696716,9.582035064697266,0.0,0.0,0.0
4998,-0.006286625750362873,-0.011474617756903172,0.9737555980682373,0.22711198031902313,-0.07812502980232239,-0.23046883940696716,9.613285064697266,0.0,0.0,0.0
5003,-0.006286625750362873,-0.011474617756903172,0.9737555980682373,0.22711198031902313,-0.07812502980232239,-0.23046883940696716,9.613285064697266,0.0,0.0,0.0
5008,-0.006286625750362873,-0.011474617756903172,0.9737555980682373,0.22711198031902313,-0.039062514901161194,-0.23046883940696716,9.539066314697266,0.0,0.0,0.0
5015,-0.006286625750362873,-0.011474617756903172,0.9737555980682373,0.22711198031902313,-0.07812502980232239,-0.23046883940696716,9.613285064697266,0.0,0.0,0.0
5019,-0.006286625750362873,-0.011474617756903172,0.9737555980682373,0.22711198031902313,-0.039062514901161194,-0.23046883940696716,9.652347564697266,0.0,0.0,0.0
5025,-0.006286625750362873,-0.011474617756903172,0.9737555980682373,0.22711198031902313,-0.039062514901161194,-0.23046883940696716,9.652347564697266,0.0,0.0,0.0
5029,-0.006286625750362873,-0.011474617756903172,0.9737555980682373,0.22711198031902313,-0.07812502980232239,-0.23046883940696716,9.687503814697266,0.0,0.0,0.0
5036,-0.006286625750362873,-0.011474617756903172,0.9737555980682373,0.22711198031902313,-0.07812502980232239,-0.23046883940696716,9.687503814697266,0.0,0.0,0.0
5040,-0.006286625750362873,-0.011474617756903172,0.9737555980682373,0.22711198031902313,-0.07812502980232239,-0.15234380960464478,9.609378814697266,0.0,0.0,0.0
5045,-0.006286625750362873,-0.011474617756903172,0.9737555980682373,0.22711198031902313,-0.07812502980232239,-0.15234380960464478,9.609378814697266,0.0,0.0,0.0
5051,-0.006286625750362873,-0.011474617756903172,0.9737555980682373,0.22711198031902313,-0.11328128725290298,-0.19140632450580597,9.613285064697266,0.0,0.0,0.0
5056,-0.006286625750362873,-0.011474617756903172,0.9737555980682373,0.22711198031902313,-0.11328128725290298,-0.19140632450580597,9.613285064697266,0.0,0.0,0.0
5062,-0.006286625750362873,-0.011474617756903172,0.9737555980682373,0.22711198031902313,-0.11328128725290298,-0.19140632450580597,9.652347564697266,0.0,0.0,0.0
5067,-0.006286625750362873,-0.011474617756903172,0.9737555980682373,0.22711198031902313,-0.07812502980232239,-0.19140632450580597,9.613285064697266,0.0,0.0,0.0
5072,-0.006286625750362873,-0.011474617756903172,0.9737555980682373,0.22711198031902313,-0.07812502980232239,-0.19140632450580597,9.613285064697266,0.0,0.0,0.0
5079,-0.006286625750362873,-0.011474617756903172,0.9737555980682373,0.22711198031902313,-0.07812502980232239,-0.23046883940696716,9.578128814697266,0.0,0.0,0.0
5084,-0.006286625750362873,-0.011474617756903172,0.9737555980682373,0.22711198031902313,-0.07812502980232239,-0.23046883940696716,9.578128814697266,0.0,0.0,0.0
5089,-0.006286625750362873,-0.011474617756903172,0.9737555980682373,0.22711198031902313,-0.07812502980232239,-0.23046883940696716,9.613285064697266,0.0,0.0,0.0
5094,-0.006286625750362873,-0.011474617756903172,0.9737555980682373,0.22711198031902313,-0.07812502980232239,-0.23046883940696716,9.613285064697266,0.0,0.0,0.0
5099,-0.006286625750362873,-0.011474617756903172,0.9737555980682373,0.22711198031902313,-0.07812502980232239,-0.23046883940696716,9.613285064697266,0.0,0.0,0.0
5104,-0.006286625750362873,-0.011474617756903172,0.9737555980682373,0.22711198031902313,-0.07812502980232239,-0.23046883940696716,9.613285064697266,0.0,0.0,0.0
5109,-0.006286625750362873,-0.011474617756903172,0.9737555980682373,0.22711198031902313,-0.07812502980232239,-0.26953133940696716,9.648441314697266,0.0,0.0,0.0
5115,-0.006286625750362873,-0.011474617756903172,0.9737555980682373,0.22711198031902313,-0.07812502980232239,-0.26953133940696716,9.648441314697266,0.0,0.0,0.0
5120,-0.006286625750362873,-0.011474617756903172,0.9737555980682373,0.22711198031902313,-0.11328128725290298,-0.23046883940696716,9.613285064697266,0.0,0.0,0.0
5126,-0.006286625750362873,-0.011474617756903172,0.9737555980682373,0.22711198031902313,-0.11328128725290298,-0.23046883940696716,9.613285064697266,0.0,0.0,0.0
5131,-0.006286625750362873,-0.011474617756903172,0.9737555980682373,0.22711198031902313,-0.07812502980232239,-0.30468761920928955,9.613285064697266,0.0,0.0,0.0
5136,-0.006225590594112873,-0.011352547444403172,0.9738166332244873,0.22711198031902313,-0.07812502980232239,-0.30468761920928955,9.613285064697266,0.0,0.0,0.0
5142,-0.006225590594112873,-0.011352547444403172,0.9738166332244873,0.22711198031902313,-0.07812502980232239,-0.26953133940696716,9.582035064697266,0.0,0.0,0.0
5147,-0.006225590594112873,-0.011352547444403172,0.9738166332244873,0.22711198031902313,-0.07812502980232239,-0.30468761920928955,9.613285064697266,0.0,0.0,0.0
5152,-0.006225590594112873,-0.011352547444403172,0.9738166332244873,0.22711198031902313,-0.07812502980232239,-0.30468761920928955,9.613285064697266,0.0,0.0,0.0
5158,-0.006225590594112873,-0.011352547444403172,0.9738166332244873,0.22711198031902313,-0.07812502980232239,-0.26953133940696716,9.648441314697266,0.0,0.0,0.0
5164,-0.006225590594112873,-0.011352547444403172,0.9738166332244873,0.22711198031902313,-0.07812502980232239,-0.26953133940696716,9.648441314697266,0.0,0.0,0.0
5169,-0.006225590594112873,-0.011352547444403172,0.9738166332244873,0.22711198031902313,-0.039062514901161194,-0.26953133940696716,9.609378814697266,0.0,0.0,0.0
5175,-0.006225590594112873,-0.011352547444403172,0.9738166332244873,0.22711198031902313,-0.039062514901161194,-0.26953133940696716,9.609378814697266,0.0,0.0,0.0
5179,-0.006225590594112873,-0.011352547444403172,0.9738166332244873,0.22711198031902313,-0.07812502980232239,-0.23046883940696716,9.578128814697266,0.0,0.0,0.0
5184,-0.006225590594112873,-0.011352547444403172,0.9738166332244873,0.22711198031902313,-0.07812502980232239,-0.23046883940696716,9.578128814697266,0.0,0.0,0.0
5190,-0.006225590594112873,-0.011352547444403172,0.9738166332244873,0.22711198031902313,-0.07812502980232239,-0.23046883940696716,9.613285064697266,0.0,0.0,0.0
5196,-0.006225590594112873,-0.011352547444403172,0.9738166332244873,0.22711198031902313,-0.039062514901161194,-0.23046883940696716,9.652347564697266,0.0,0.0,0.0
5201,-0.006225590594112873,-0.011352547444403172,0.9738166332244873,0.22711198031902313,-0.039062514901161194,-0.23046883940696716,9.652347564697266,0.0,0.0,0.0
5207,-0.006225590594112873,-0.011352547444403172,0.9738166332244873,0.22711198031902313,-0.07812502980232239,-0.23046883940696716,9.578128814697266,0.0,0.0,0.0
5213,-0.006225590594112873,-0.011352547444403172,0.9738166332244873,0.22711198031902313,-0.07812502980232239,-0.23046883940696716,9.578128814697266,0.0,0.0,0.0
5219,-0.006225590594112873,-0.011352547444403172,0.9738166332244873,0.22711198031902313,-0.039062514901161194,-0.23046883940696716,9.652347564697266,0.0,0.0,0.0
5224,-0.006225590594112873,-0.011352547444403172,0.9738166332244873,0.22711198031902313,-0.039062514901161194,-0.23046883940696716,9.652347564697266,0.0,0.0,0.0
5231,-0.006225590594112873,-0.011352547444403172,0.9738166332244873,0.22711198031902313,-0.07812502980232239,-0.23046883940696716,9.652347564697266,0.0,0.0,0.0
5235,-0.006225590594112873,-0.011352547444403172,0.9738166332244873,0.22711198031902313,-0.039062514901161194,-0.23046883940696716,9.613285064697266,0.0,0.0,0.0
5240,-0.006225590594112873,-0.011352547444403172,0.9738166332244873,0.22711198031902313,-0.07812502980232239,-0.19140632450580597,9.539066314697266,0.0,0.0,0.0
5245,-0.006225590594112873,-0.011352547444403172,0.9738166332244873,0.22711198031902313,-0.07812502980232239,-0.19140632450580597,9.539066314697266,0.0,0.0,0.0
5252,-0.006225590594112873,-0.011352547444403172,0.9738166332244873,0.22711198031902313,-0.07812502980232239,-0.19140632450580597,9.578128814697266,0.0,0.0,0.0
5257,-0.006225590594112873,-0.011352547444403172,0.9738166332244873,0.22711198031902313,-0.11328128725290298,-0.23046883940696716,9.613285064697266,0.0,0.0,0.0
5262,-0.006225590594112873,-0.011352547444403172,0.9738166332244873,0.22711198031902313,-0.11328128725290298,-0.23046883940696716,9.613285064697266,0.0,0.0,0.0
5267,-0.006225590594112873,-0.011352547444403172,0.9738166332244873,0.22711198031902313,-0.07812502980232239,-0.26953133940696716,9.609378814697266,0.0,0.0,0.0
5273,-0.006225590594112873,-0.011352547444403172,0.9738166332244873,0.22711198031902313,-0.07812502980232239,-0.26953133940696716,9.609378814697266,0.0,0.0,0.0
5277,-0.006225590594112873,-0.011352547444403172,0.9738166332244873,0.22711198031902313,-0.039062514901161194,-0.26953133940696716,9.648441314697266,0.0,0.0,0.0
5282,-0.006225590594112873,-0.011352547444403172,0.9738166332244873,0.22711198031902313,-0.039062514901161194,-0.26953133940696716,9.648441314697266,0.0,0.0,0.0
5287,-0.006225590594112873,-0.011352547444403172,0.9738166332244873,0.22711198031902313,-0.07812502980232239,-0.26953133940696716,9.609378814697266,0.0,0.0,0.0
5293,-0.006225590594112873,-0.011352547444403172,0.9738166332244873,0.22711198031902313,-0.07812502980232239,-0.26953133940696716,9.609378814697266,0.0,0.0,0.0
5298,-0.006225590594112873,-0.011352547444403172,0.9738166332244873,0.22711198031902313,-0.039062514901161194,-0.26953133940696716,9.542972564697266,0.0,0.0,0.0
5303,-0.006225590594112873,-0.011352547444403172,0.9738166332244873,0.22711198031902313,-0.039062514901161194,-0.26953133940696716,9.542972564697266,0.0,0.0,0.0
5309,-0.006225590594112873,-0.011352547444403172,0.9738166332244873,0.22711198031902313,-0.07812502980232239,-0.26953133940696716,9.648441314697266,0.0,0.0,0.0
5314,-0.006225590594112873,-0.011352547444403172,0.9738166332244873,0.22711198031902313,-0.07812502980232239,-0.26953133940696716,9.648441314697266,0.0,0.0,0.0
5320,-0.006225590594112873,-0.011352547444403172,0.9738166332244873,0.22711198031902313,-0.07812502980232239,-0.19140632450580597,9.613285064697266,0.0,0.0,0.0
5325,-0.006225590594112873,-0.011352547444403172,0.9738166332244873,0.22711198031902313,-0.07812502980232239,-0.26953133940696716,9.609378814697266,0.0,0.0,0.0
5330,-0.006225590594112873,-0.011352547444403172,0.9738166332244873,0.22711198031902313,-0.07812502980232239,-0.26953133940696716,9.609378814697266,0.0,0.0,0.0
5336,-0.006225590594112873,-0.011352547444403172,0.9738166332244873,0.22711198031902313,-0.039062514901161194,-0.23046883940696716,9.613285064697266,0.0,0.0,0.0
5341,-0.006225590594112873,-0.011352547444403172,0.9738166332244873,0.22711198031902313,-0.039062514901161194,-0.23046883940696716,9.613285064697266,0.0,0.0,0.0
5346,-0.006225590594112873,-0.011352547444403172,0.9738166332244873,0.22711198031902313,-0.07812502980232239,-0.26953133940696716,9.648441314697266,0.0,0.0,0.0
5352,-0.006225590594112873,-0.011352547444403172,0.9738166332244873,0.22711198031902313,-0.07812502980232239,-0.26953133940696716,9.648441314697266,0.0,0.0,0.0
5356,-0.006225590594112873,-0.011352547444403172,0.9738166332244873,0.22711198031902313,-0.039062514901161194,-0.23046883940696716,9.578128814697266,0.0,0.0,0.0
5362,-0.006225590594112873,-0.011352547444403172,0.9738166332244873,0.22711198031902313,-0.039062514901161194,-0.23046883940696716,9.578128814697266,0.0,0.0,0.0
5367,-0.006225590594112873,-0.011352547444403172,0.9738166332244873,0.22711198031902313,-0.07812502980232239,-0.23046883940696716,9.652347564697266,0.0,0.0,0.0
5373,-0.006286625750362873,-0.011230477131903172,0.9738166332244873,0.22711198031902313,-0.07812502980232239,-0.23046883940696716,9.652347564697266,0.0,0.0,0.0
5379,-0.006286625750362873,-0.011230477131903172,0.9738166332244873,0.22711198031902313,-0.07812502980232239,-0.23046883940696716,9.652347564697266,0.0,0.0,0.0
5384,-0.006286625750362873,-0.011230477131903172,0.9738166332244873,0.22711198031902313,-0.07812502980232239,-0.26953133940696716,9.609378814697266,0.0,0.0,0.0
5389,-0.006286625750362873,-0.011230477131903172,0.9738166332244873,0.22711198031902313,-0.039062514901161194,-0.26953133940696716,9.648441314697266,0.0,0.0,0.0
5394,-0.006286625750362873,-0.011230477131903172,0.9738166332244873,0.22711198031902313,-0.07812502980232239,-0.26953133940696716,9.609378814697266,0.0,0.0,0.0
5400,-0.006286625750362873,-0.011230477131903172,0.9738166332244873,0.22711198031902313,-0.07812502980232239,-0.26953133940696716,9.609378814697266,0.0,0.0,0.0
5405,-0.006286625750362873,-0.011230477131903172,0.9738166332244873,0.22711198031902313,-0.07812502980232239,-0.23046883940696716,9.578128814697266,0.0,0.0,0.0
5411,-0.006286625750362873,-0.011230477131903172,0.9738166332244873,0.22711198031902313,-0.07812502980232239,-0.23046883940696716,9.578128814697266,0.0,0.0,0.0
5415,-0.006286625750362873,-0.011230477131903172,0.9738166332244873,0.22711198031902313,-0.039062514901161194,-0.23046883940696716,9.652347564697266,0.0,0.0,0.0
5421,-0.006286625750362873,-0.011230477131903172,0.9738166332244873,0.22711198031902313,-0.039062514901161194,-0.23046883940696716,9.652347564697266,0.0,0.0,0.0
5426,-0.006286625750362873,-0.011230477131903172,0.9738166332244873,0.22711198031902313,-0.07812502980232239,-0.19140632450580597,9.578128814697266,0.0,0.0,0.0
5431,-0.006286625750362873,-0.011230477131903172,0.9738166332244873,0.22711198031902313,-0.07812502980232239,-0.19140632450580597,9.578128814697266,0.0,0.0,0.0
5436,-0.006286625750362873,-0.011230477131903172,0.9738166332244873,0.22711198031902313,-0.07812502980232239,-0.23046883940696716,9.652347564697266,0.0,0.0,0.0
5442,-0.006286625750362873,-0.011230477131903172,0.9738166332244873,0.22711198031902313,-0.07812502980232239,-0.23046883940696716,9.652347564697266,0.0,0.0,0.0
5447,-0.006286625750362873,-0.011230477131903172,0.9738166332244873,0.22711198031902313,-0.039062514901161194,-0.23046883940696716,9.652347564697266,0.0,0.0,0.0
5453,-0.006286625750362873,-0.011230477131903172,0.9738166332244873,0.22711198031902313,-0.07812502980232239,-0.23046883940696716,9.613285064697266,0.0,0.0,0.0
5458,-0.006286625750362873,-0.011230477131903172,0.9738166332244873,0.22711198031902313,-0.07812502980232239,-0.23046883940696716,9.613285064697266,0.0,0.0,0.0
5464,-0.006286625750362873,-0.011230477131903172,0.9738166332244873,0.22711198031902313,-0.039062514901161194,-0.19140632450580597,9.652347564697266,0.0,0.0,0.0
5470,-0.006286625750362873,-0.011230477131903172,0.9738166332244873,0.22711198031902313,-0.07812502980232239,-0.19140632450580597,9.613285064697266,0.0,0.0,0.0
5475,-0.006286625750362873,-0.011230477131903172,0.9738166332244873,0.22711198031902313,-0.07812502980232239,-0.19140632450580597,9.687503814697266,0.0,0.0,0.0
5480,-0.006286625750362873,-0.011230477131903172,0.9738166332244873,0.22711198031902313,-0.07812502980232239,-0.19140632450580597,9.687503814697266,0.0,0.0,0.0
5485,-0.006286625750362873,-0.011230477131903172,0.9738166332244873,0.22711198031902313,-0.039062514901161194,-0.23046883940696716,9.652347564697266,0.0,0.0,0.0
5490,-0.006286625750362873,-0.011230477131903172,0.9738166332244873,0.22711198031902313,-0.039062514901161194,-0.23046883940696716,9.652347564697266,0.0,0.0,0.0
5495,-0.006286625750362873,-0.011230477131903172,0.9738166332244873,0.22711198031902313,-0.11328128725290298,-0.26953133940696716,9.609378814697266,0.0,0.0,0.0
5501,-0.006286625750362873,-0.011230477131903172,0.9738166332244873,0.22711198031902313,-0.11328128725290298,-0.26953133940696716,9.609378814697266,0.0,0.0,0.0
5507,-0.006286625750362873,-0.011230477131903172,0.9738166332244873,0.22711198031902313,-0.07812502980232239,-0.26953133940696716,9.582035064697266,0.0,0.0,0.0
5513,-0.006286625750362873,-0.011230477131903172,0.9738166332244873,0.22711198031902313,-0.039062514901161194,-0.23046883940696716,9.578128814697266,0.0,0.0,0.0
5518,-0.006286625750362873,-0.011230477131903172,0.9738166332244873,0.22711198031902313,-0.039062514901161194,-0.23046883940696716,9.578128814697266,0.0,0.0,0.0
5523,-0.006286625750362873,-0.011230477131903172,0.9738166332244873,0.22711198031902313,-0.07812502980232239,-0.26953133940696716,9.609378814697266,0.0,0.0,0.0
5528,-0.006286625750362873,-0.011230477131903172,0.9738166332244873,0.22711198031902313,-0.07812502980232239,-0.26953133940696716,9.609378814697266,0.0,0.0,0.0
5533,-0.006286625750362873,-0.011230477131903172,0.9738166332244873,0.22711198031902313,-0.07812502980232239,-0.26953133940696716,9.648441314697266,0.0,0.0,0.0
5538,-0.006286625750362873,-0.011230477131903172,0.9738166332244873,0.22711198031902313,-0.07812502980232239,-0.26953133940696716,9.648441314697266,0.0,0.0,0.0
5543,-0.006286625750362873,-0.011230477131903172,0.9738166332244873,0.22711198031902313,-0.07812502980232239,-0.23046883940696716,9.578128814697266,0.0,0.0,0.0
5549,-0.006286625750362873,-0.011230477131903172,0.9738166332244873,0.22711198031902313,-0.07812502980232239,-0.23046883940696716,9.578128814697266,0.0,0.0,0.0
5554,-0.006286625750362873,-0.011230477131903172,0.9738166332244873,0.22711198031902313,-0.07812502980232239,-0.26953133940696716,9.648441314697266,0.0,0.0,0.0
5560,-0.006286625750362873,-0.011230477131903172,0.9738166332244873,0.22711198031902313,-0.07812502980232239,-0.26953133940696716,9.648441314697266,0.0,0.0,0.0
5565,-0.006286625750362873,-0.011230477131903172,0.9738166332244873,0.22711198031902313,-0.039062514901161194,-0.26953133940696716,9.609378814697266,0.0,0.0,0.0
5570,-0.006286625750362873,-0.011230477131903172,0.9738166332244873,0.22711198031902313,-0.039062514901161194,-0.26953133940696716,9.609378814697266,0.0,0.0,0.0
5575,-0.006286625750362873,-0.011230477131903172,0.9738166332244873,0.22711198031902313,-0.07812502980232239,-0.26953133940696716,9.609378814697266,0.0,0.0,0.0
5581,-0.006286625750362873,-0.011230477131903172,0.9738166332244873,0.22711198031902313,-0.07812502980232239,-0.26953133940696716,9.609378814697266,0.0,0.0,0.0
5586,-0.006286625750362873,-0.011230477131903172,0.9738166332244873,0.22711198031902313,-0.07812502980232239,-0.26953133940696716,9.582035064697266,0.0,0.0,0.0
5592,-0.006286625750362873,-0.011230477131903172,0.9738166332244873,0.22711198031902313,-0.07812502980232239,-0.26953133940696716,9.648441314697266,0.0,0.0,0.0
5597,-0.006286625750362873,-0.011230477131903172,0.9738166332244873,0.22711198031902313,-0.07812502980232239,-0.26953133940696716,9.648441314697266,0.0,0.0,0.0
5602,-0.006286625750362873,-0.011230477131903172,0.9738166332244873,0.22711198031902313,-0.07812502980232239,-0.23046883940696716,9.539066314697266,0.0,0.0,0.0
5608,-0.006286625750362873,-0.011230477131903172,0.9738166332244873,0.22711198031902313,-0.07812502980232239,-0.23046883940696716,9.539066314697266,0.0,0.0,0.0
5613,-0.006286625750362873,-0.011230477131903172,0.9738166332244873,0.22711198031902313,-0.07812502980232239,-0.19140632450580597,9.613285064697266,0.0,0.0,0.0
5618,-0.006286625750362873,-0.011230477131903172,0.9738166332244873,0.22711198031902313,-0.07812502980232239,-0.19140632450580597,9.613285064697266,0.0,0.0,0.0
5623,-0.006286625750362873,-0.011230477131903172,0.9738166332244873,0.22711198031902313,-0.07812502980232239,-0.23046883940696716,9.652347564697266,0.0,0.0,0.0
5628,-0.006286625750362873,-0.011230477131903172,0.9738166332244873,0.22711198031902313,-0.07812502980232239,-0.23046883940696716,9.652347564697266,0.0,0.0,0.0
5634,-0.006286625750362873,-0.011230477131903172,0.9738166332244873,0.22711198031902313,-0.039062514901161194,-0.23046883940696716,9.652347564697266,0.0,0.0,0.0
5639,-0.006286625750362873,-0.011230477131903172,0.9738166332244873,0.22711198031902313,-0.039062514901161194,-0.23046883940696716,9.652347564697266,0.0,0.0,0.0
5645,-0.006286625750362873,-0.011230477131903172,0.9738166332244873,0.22711198031902313,-0.039062514901161194,-0.23046883940696716,9.613285064697266,0.0,0.0,0.0
5650,-0.006286625750362873,-0.011230477131903172,0.9738166332244873,0.22711198031902313,-0.07812502980232239,-0.23046883940696716,9.578128814697266,0.0,0.0,0.0
5655,-0.006286625750362873,-0.011230477131903172,0.9738166332244873,0.22711198031902313,-0.07812502980232239,-0.23046883940696716,9.578128814697266,0.0,0.0,0.0
5661,-0.006286625750362873,-0.011230477131903172,0.9738166332244873,0.22711198031902313,-0.07812502980232239,-0.26953133940696716,9.648441314697266,0.0,0.0,0.0
5666,-0.006286625750362873,-0.011230477131903172,0.9738166332244873,0.22711198031902313,-0.039062514901161194,-0.23046883940696716,9.578128814697266,0.0,0.0,0.0
5671,-0.006286625750362873,-0.011230477131903172,0.9738166332244873,0.22711198031902313,-0.11328128725290298,-0.23046883940696716,9.613285064697266,0.0,0.0,0.0
5677,-0.006286625750362873,-0.011230477131903172,0.9738166332244873,0.22711198031902313,-0.11328128725290298,-0.23046883940696716,9.613285064697266,0.0,0.0,0.0
5682,-0.006286625750362873,-0.011230477131903172,0.9738166332244873,0.22711198031902313,-0.039062514901161194,-0.23046883940696716,9.578128814697266,0.0,0.0,0.0
5688,-0.006286625750362873,-0.011230477131903172,0.9738166332244873,0.22711198031902313,-0.039062514901161194,-0.23046883940696716,9.578128814697266,0.0,0.0,0.0
5693,-0.006286625750362873,-0.011230477131903172,0.9738166332244873,0.22711198031902313,-0.07812502980232239,-0.23046883940696716,9.652347564697266,0.0,0.0,0.0
5699,-0.006286625750362873,-0.011230477131903172,0.9738166332244873,0.22711198031902313,-0.07812502980232239,-0.23046883940696716,9.652347564697266,0.0,0.0,0.0
5704,-0.006286625750362873,-0.011230477131903172,0.9738166332244873,0.22711198031902313,-0.039062514901161194,-0.23046883940696716,9.652347564697266,0.0,0.0,0.0
5710,-0.006286625750362873,-0.011230477131903172,0.9738166332244873,0.22711198031902313,-0.07812502980232239,-0.26953133940696716,9.582035064697266,0.0,0.0,0.0
5715,-0.006286625750362873,-0.011230477131903172,0.9738166332244873,0.22711198031902313,-0.07812502980232239,-0.26953133940696716,9.582035064697266,0.0,0.0,0.0
5720,-0.006286625750362873,-0.011230477131903172,0.9738166332244873,0.22711198031902313,-0.11328128725290298,-0.26953133940696716,9.582035064697266,0.0,0.0,0.0
5726,-0.006286625750362873,-0.011230477131903172,0.9738166332244873,0.22711198031902313,-0.11328128725290298,-0.26953133940696716,9.582035064697266,0.0,0.0,0.0
5731,-0.006286625750362873,-0.011230477131903172,0.9738166332244873,0.22711198031902313,-0.039062514901161194,-0.26953133940696716,9.609378814697266,0.0,0.0,0.0
5736,-0.006286625750362873,-0.011230477131903172,0.9738166332244873,0.22711198031902313,-0.039062514901161194,-0.26953133940696716,9.609378814697266,0.0,0.0,0.0
5741,-0.006286625750362873,-0.011230477131903172,0.9738166332244873,0.22711198031902313,-0.07812502980232239,-0.26953133940696716,9.582035064697266,0.0,0.0,0.0
5747,-0.006286625750362873,-0.011230477131903172,0.9738166332244873,0.22711198031902313,-0.07812502980232239,-0.26953133940696716,9.582035064697266,0.0,0.0,0.0
5751,-0.006286625750362873,-0.011230477131903172,0.9738166332244873,0.22711198031902313,-0.039062514901161194,-0.26953133940696716,9.648441314697266,0.0,0.0,0.0
5756,-0.006286625750362873,-0.011230477131903172,0.9738166332244873,0.22711198031902313,-0.039062514901161194,-0.26953133940696716,9.648441314697266,0.0,0.0,0.0
5762,-0.006286625750362873,-0.011230477131903172,0.9738166332244873,0.22711198031902313,-0.07812502980232239,-0.26953133940696716,9.609378814697266,0.0,0.0,0.0
5768,-0.006286625750362873,-0.011230477131903172,0.9738166332244873,0.22711198031902313,-0.07812502980232239,-0.26953133940696716,9.609378814697266,0.0,0.0,0.0
5772,-0.006286625750362873,-0.011230477131903172,0.9738166332244873,0.22711198031902313,-0.07812502980232239,-0.26953133940696716,9.582035064697266,0.0,0.0,0.0
5777,-0.006286625750362873,-0.011230477131903172,0.9738166332244873,0.22711198031902313,-0.07812502980232239,-0.26953133940696716,9.582035064697266,0.0,0.0,0.0
5784,-0.006286625750362873,-0.011230477131903172,0.9738166332244873,0.22711198031902313,-0.07812502980232239,-0.23046883940696716,9.578128814697266,0.0,0.0,0.0
5789,-0.006286625750362873,-0.011230477131903172,0.9738166332244873,0.22711198031902313,-0.11328128725290298,-0.26953133940696716,9.648441314697266,0.0,0.0,0.0
5794,-0.006286625750362873,-0.011230477131903172,0.9738166332244873,0.22711198031902313,-0.11328128725290298,-0.26953133940696716,9.648441314697266,0.0,0.0,0.0
5800,-0.006286625750362873,-0.011230477131903172,0.9738166332244873,0.22711198031902313,-0.039062514901161194,-0.26953133940696716,9.609378814697266,0.0,0.0,0.0
5806,-0.006286625750362873,-0.011230477131903172,0.9738166332244873,0.22711198031902313,-0.039062514901161194,-0.26953133940696716,9.609378814697266,0.0,0.0,0.0
5811,-0.006286625750362873,-0.011230477131903172,0.9738166332244873,0.22711198031902313,-0.039062514901161194,-0.26953133940696716,9.691410064697266,0.0,0.0,0.0
5816,-0.006286625750362873,-0.011230477131903172,0.9738166332244873,0.22711198031902313,-0.039062514901161194,-0.26953133940696716,9.691410064697266,0.0,0.0,0.0
5821,-0.006286625750362873,-0.011230477131903172,0.9738166332244873,0.22711198031902313,-0.07812502980232239,-0.23046883940696716,9.613285064697266,0.0,0.0,0.0
5826,-0.006286625750362873,-0.011230477131903172,0.9738166332244873,0.22711198031902313,-0.07812502980232239,-0.23046883940696716,9.613285064697266,0.0,0.0,0.0
5831,-0.006286625750362873,-0.011230477131903172,0.9738166332244873,0.22711198031902313,-0.07812502980232239,-0.23046883940696716,9.613285064697266,0.0,0.0,0.0
5837,-0.006286625750362873,-0.011230477131903172,0.9738166332244873,0.22711198031902313,-0.07812502980232239,-0.23046883940696716,9.613285064697266,0.0,0.0,0.0
5843,-0.006286625750362873,-0.011230477131903172,0.9738166332244873,0.22711198031902313,-0.039062514901161194,-0.23046883940696716,9.578128814697266,0.0,0.0,0.0
5849,-0.006286625750362873,-0.011230477131903172,0.9738166332244873,0.22711198031902313,-0.07812502980232239,-0.23046883940696716,9.652347564697266,0.0,0.0,0.0
5854,-0.006286625750362873,-0.011230477131903172,0.9738166332244873,0.22711198031902313,-0.07812502980232239,-0.23046883940696716,9.652347564697266,0.0,0.0,0.0
5860,-0.006286625750362873,-0.011230477131903172,0.9738166332244873,0.22711198031902313,-0.07812502980232239,-0.19140632450580597,9.652347564697266,0.0,0.0,0.0
5865,-0.006286625750362873,-0.011230477131903172,0.9738166332244873,0.22711198031902313,-0.07812502980232239,-0.19140632450580597,9.652347564697266,0.0,0.0,0.0
5869,-0.006286625750362873,-0.011230477131903172,0.9738166332244873,0.22711198031902313,-0.07812502980232239,-0.19140632450580597,9.578128814697266,0.0,0.0,0.0
5874,-0.006286625750362873,-0.011230477131903172,0.9738166332244873,0.22711198031902313,-0.07812502980232239,-0.19140632450580597,9.578128814697266,0.0,0.0,0.0
5880,-0.006286625750362873,-0.011230477131903172,0.9738166332244873,0.22711198031902313,-0.039062514901161194,-0.23046883940696716,9.578128814697266,0.0,0.0,0.0
5886,-0.006286625750362873,-0.011230477131903172,0.9738166332244873,0.22711198031902313,-0.039062514901161194,-0.23046883940696716,9.578128814697266,0.0,0.0,0.0
5893,-0.006286625750362873,-0.011230477131903172,0.9738166332244873,0.22711198031902313,-0.039062514901161194,-0.23046883940696716,9.652347564697266,0.0,0.0,0.0
5898,-0.006286625750362873,-0.011230477131903172,0.9738166332244873,0.22711198031902313,-0.039062514901161194,-0.26953133940696716,9.609378814697266,0.0,0.0,0.0
5903,-0.006286625750362873,-0.011230477131903172,0.9738166332244873,0.22711198031902313,-0.039062514901161194,-0.26953133940696716,9.609378814697266,0.0,0.0,0.0
5908,-0.006286625750362873,-0.011230477131903172,0.9738166332244873,0.22711198031902313,-0.07812502980232239,-0.19140632450580597,9.613285064697266,0.0,0.0,0.0
5913,-0.006286625750362873,-0.011230477131903172,0.9738166332244873,0.22711198031902313,-0.07812502980232239,-0.19140632450580597,9.613285064697266,0.0,0.0,0.0
5918,-0.006286625750362873,-0.011230477131903172,0.9738166332244873,0.22711198031902313,-0.039062514901161194,-0.26953133940696716,9.609378814697266,0.0,0.0,0.0
5923,-0.006286625750362873,-0.011230477131903172,0.9738166332244873,0.22711198031902313,-0.039062514901161194,-0.26953133940696716,9.609378814697266,0.0,0.0,0.0
5928,-0.006286625750362873,-0.011230477131903172,0.9738166332244873,0.22711198031902313,-0.07812502980232239,-0.26953133940696716,9.609378814697266,0.0,0.0,0.0
5935,-0.006286625750362873,-0.011230477131903172,0.9738166332244873,0.22711198031902313,-0.07812502980232239,-0.26953133940696716,9.609378814697266,0.0,0.0,0.0
5940,-0.006286625750362873,-0.011230477131903172,0.9738166332244873,0.22711198031902313,-0.07812502980232239,-0.26953133940696716,9.691410064697266,0.0,0.0,0.0
5946,-0.006286625750362873,-0.011230477131903172,0.9738166332244873,0.22711198031902313,-0.07812502980232239,-0.26953133940696716,9.691410064697266,0.0,0.0,0.0
5950,-0.006286625750362873,-0.011230477131903172,0.9738166332244873,0.22711198031902313,-0.07812502980232239,-0.26953133940696716,9.691410064697266,0.0,0.0,0.0
5955,-0.006286625750362873,-0.011230477131903172,0.9738166332244873,0.22711198031902313,-0.07812502980232239,-0.26953133940696716,9.691410064697266,0.0,0.0,0.0
5960,-0.006286625750362873,-0.011230477131903172,0.9738166332244873,0.22711198031902313,-0.07812502980232239,-0.26953133940696716,9.582035064697266,0.0,0.0,0.0
5966,-0.006286625750362873,-0.011230477131903172,0.9738166332244873,0.22711198031902313,-0.07812502980232239,-0.26953133940696716,9.582035064697266,0.0,0.0,0.0
5971,-0.006286625750362873,-0.011230477131903172,0.9738166332244873,0.22711198031902313,-0.07812502980232239,-0.26953133940696716,9.582035064697266,0.0,0.0,0.0
5978,-0.006286625750362873,-0.011230477131903172,0.9738166332244873,0.22711198031902313,-0.07812502980232239,-0.26953133940696716,9.609378814697266,0.0,0.0,0.0
5983,-0.006286625750362873,-0.011230477131903172,0.9738166332244873,0.22711198031902313,-0.07812502980232239,-0.26953133940696716,9.609378814697266,0.0,0.0,0.0
5987,-0.006286625750362873,-0.011230477131903172,0.9738166332244873,0.22711198031902313,-0.11328128725290298,-0.26953133940696716,9.582035064697266,0.0,0.0,0.0
5992,-0.006286625750362873,-0.011230477131903172,0.9738166332244873,0.22711198031902313,-0.11328128725290298,-0.26953133940696716,9.582035064697266,0.0,0.0,0.0
5998,-0.006286625750362873,-0.011230477131903172,0.9738166332244873,0.22711198031902313,-0.07812502980232239,-0.23046883940696716,9.652347564697266,0.0,0.0,0.0
6003,-0.006286625750362873,-0.011230477131903172,0.9738166332244873,0.22711198031902313,-0.07812502980232239,-0.23046883940696716,9.652347564697266,0.0,0.0,0.0
6008,-0.006286625750362873,-0.011230477131903172,0.9738166332244873,0.22711198031902313,-0.07812502980232239,-0.23046883940696716,9.613285064697266,0.0,0.0,0.0
6013,-0.006286625750362873,-0.011230477131903172,0.9738166332244873,0.22711198031902313,-0.07812502980232239,-0.23046883940696716,9.613285064697266,0.0,0.0,0.0
6019,-0.006286625750362873,-0.011230477131903172,0.9738166332244873,0.22711198031902313,-0.07812502980232239,-0.23046883940696716,9.613285064697266,0.0,0.0,0.0
6024,-0.006286625750362873,-0.011230477131903172,0.9738166332244873,0.22711198031902313,-0.07812502980232239,-0.23046883940696716,9.613285064697266,0.0,0.0,0.0
6029,-0.006286625750362873,-0.011230477131903172,0.9738166332244873,0.22711198031902313,-0.07812502980232239,-0.19140632450580597,9.578128814697266,0.0,0.0,0.0
6034,-0.006286625750362873,-0.011230477131903172,0.9738166332244873,0.22711198031902313,-0.07812502980232239,-0.19140632450580597,9.578128814697266,0.0,0.0,0.0
6041,-0.006286625750362873,-0.011230477131903172,0.9738166332244873,0.22711198031902313,-0.07812502980232239,-0.23046883940696716,9.578128814697266,0.0,0.0,0.0
6046,-0.006286625750362873,-0.011230477131903172,0.9738166332244873,0.22711198031902313,-0.07812502980232239,-0.23046883940696716,9.613285064697266,0.0,0.0,0.0
6051,-0.006286625750362873,-0.011230477131903172,0.9738166332244873,0.22711198031902313,-0.07812502980232239,-0.23046883940696716,9.613285064697266,0.0,0.0,0.0
6056,-0.006286625750362873,-0.011230477131903172,0.9738166332244873,0.22711198031902313,-0.07812502980232239,-0.19140632450580597,9.578128814697266,0.0,0.0,0.0
6062,-0.006286625750362873,-0.011230477131903172,0.9738166332244873,0.22711198031902313,-0.07812502980232239,-0.19140632450580597,9.578128814697266,0.0,0.0,0.0
6067,-0.006286625750362873,-0.011230477131903172,0.9738166332244873,0.22711198031902313,-0.07812502980232239,-0.26953133940696716,9.648441314697266,0.0,0.0,0.0
6072,-0.006286625750362873,-0.011230477131903172,0.9738166332244873,0.22711198031902313,-0.07812502980232239,-0.26953133940696716,9.648441314697266,0.0,0.0,0.0
6078,-0.006286625750362873,-0.011230477131903172,0.9738166332244873,0.22711198031902313,-0.039062514901161194,-0.23046883940696716,9.613285064697266,0.0,0.0,0.0
6084,-0.006286625750362873,-0.011230477131903172,0.9738166332244873,0.22711198031902313,-0.039062514901161194,-0.23046883940696716,9.613285064697266,0.0,0.0,0.0
6089,-0.006286625750362873,-0.011230477131903172,0.9738166332244873,0.22711198031902313,-0.11328128725290298,-0.23046883940696716,9.652347564697266,0.0,0.0,0.0
6094,-0.006347660906612873,-0.011352547444403172,0.9738166332244873,0.22711198031902313,-0.11328128725290298,-0.23046883940696716,9.652347564697266,0.0,0.0,0.0
6100,-0.006347660906612873,-0.011352547444403172,0.9738166332244873,0.22711198031902313,-0.07812502980232239,-0.19140632450580597,9.652347564697266,0.0,0.0,0.0
6106,-0.006347660906612873,-0.011352547444403172,0.9738166332244873,0.22711198031902313,-0.039062514901161194,-0.26953133940696716,9.648441314697266,0.0,0.0,0.0
6111,-0.006347660906612873,-0.011352547444403172,0.9738166332244873,0.22711198031902313,-0.039062514901161194,-0.26953133940696716,9.648441314697266,0.0,0.0,0.0
6116,-0.006347660906612873,-0.011352547444403172,0.9738166332244873,0.22711198031902313,-0.039062514901161194,-0.30468761920928955,9.652347564697266,0.0,0.0,0.0
6122,-0.006347660906612873,-0.011352547444403172,0.9738166332244873,0.22711198031902313,-0.039062514901161194,-0.30468761920928955,9.652347564697266,0.0,0.0,0.0
6126,-0.006347660906612873,-0.011352547444403172,0.9738166332244873,0.22711198031902313,-0.07812502980232239,-0.23046883940696716,9.613285064697266,0.0,0.0,0.0
6132,-0.006347660906612873,-0.011352547444403172,0.9738166332244873,0.22711198031902313,-0.07812502980232239,-0.23046883940696716,9.613285064697266,0.0,0.0,0.0
6137,-0.006347660906612873,-0.011352547444403172,0.9738166332244873,0.22711198031902313,-0.07812502980232239,-0.23046883940696716,9.652347564697266,0.0,0.0,0.0
6144,-0.006347660906612873,-0.011352547444403172,0.9738166332244873,0.22711198031902313,-0.07812502980232239,-0.23046883940696716,9.652347564697266,0.0,0.0,0.0
6148,-0.006347660906612873,-0.011352547444403172,0.9738166332244873,0.22711198031902313,-0.039062514901161194,-0.26953133940696716,9.582035064697266,0.0,0.0,0.0
6154,-0.006347660906612873,-0.011352547444403172,0.9738166332244873,0.22711198031902313,-0.039062514901161194,-0.26953133940696716,9.582035064697266,0.0,0.0,0.0
6160,-0.006347660906612873,-0.011352547444403172,0.9738166332244873,0.22711198031902313,-0.039062514901161194,-0.23046883940696716,9.578128814697266,0.0,0.0,0.0
6164,-0.006347660906612873,-0.011352547444403172,0.9738166332244873,0.22711198031902313,-0.039062514901161194,-0.26953133940696716,9.609378814697266,0.0,0.0,0.0
6169,-0.006347660906612873,-0.011352547444403172,0.9738166332244873,0.22711198031902313,-0.039062514901161194,-0.26953133940696716,9.609378814697266,0.0,0.0,0.0
6175,-0.006347660906612873,-0.011352547444403172,0.9738166332244873,0.22711198031902313,-0.039062514901161194,-0.26953133940696716,9.609378814697266,0.0,0.0,0.0
6181,-0.006347660906612873,-0.011352547444403172,0.9738166332244873,0.22711198031902313,-0.039062514901161194,-0.26953133940696716,9.609378814697266,0.0,0.0,0.0
6187,-0.006347660906612873,-0.011352547444403172,0.9738166332244873,0.22711198031902313,-0.039062514901161194,-0.26953133940696716,9.648441314697266,0.0,0.0,0.0
6192,-0.006347660906612873,-0.011352547444403172,0.9738166332244873,0.22711198031902313,-0.039062514901161194,-0.26953133940696716,9.648441314697266,0.0,0.0,0.0
6197,-0.006347660906612873,-0.011352547444403172,0.9738166332244873,0.22711198031902313,0.0,-0.26953133940696716,9.609378814697266,0.0,0.0,0.0
6202,-0.006347660906612873,-0.011352547444403172,0.9738166332244873,0.22711198031902313,0.0,-0.26953133940696716,9.609378814697266,0.0,0.0,0.0
6207,-0.006347660906612873,-0.011352547444403172,0.9738166332244873,0.22711198031902313,-0.07812502980232239,-0.23046883940696716,9.578128814697266,0.0,0.0,0.0
6212,-0.006347660906612873,-0.011352547444403172,0.9738166332244873,0.22711198031902313,-0.07812502980232239,-0.23046883940696716,9.578128814697266,0.0,0.0,0.0
6217,-0.006347660906612873,-0.011352547444403172,0.9738166332244873,0.22711198031902313,-0.07812502980232239,-0.23046883940696716,9.578128814697266,0.0,0.0,0.0
6223,-0.006347660906612873,-0.011352547444403172,0.9738166332244873,0.22711198031902313,-0.07812502980232239,-0.23046883940696716,9.578128814697266,0.0,0.0,0.0
6227,-0.006347660906612873,-0.011352547444403172,0.9738166332244873,0.22711198031902313,-0.07812502980232239,-0.23046883940696716,9.613285064697266,0.0,0.0,0.0
