Timestamp,QI,QJ,QK,QR,AX,AY,AZ,GX,GY,GZ
2447680,0.0,0.0,0.0,0.0,-0.07812502980232239,-0.5351564288139343,9.648441314697266,0.0,0.0,0.0
2452792,0.0,0.0,0.0,0.0,-0.039062514901161194,-0.5351564288139343,9.648441314697266,0.0,0.0,0.0
2458712,0.0,0.0,0.0,0.0,-0.039062514901161194,-0.4960939288139343,9.648441314697266,0.0,0.0,0.0
2463508,0.0,0.0,0.0,0.0,-0.07812502980232239,-0.4960939288139343,9.648441314697266,0.0,0.0,0.0
2469768,0.0,0.0,0.0,0.0,-0.039062514901161194,-0.5351564288139343,9.582035064697266,0.0,0.0,0.0
2476044,0.0,0.0,0.0,0.0,-0.039062514901161194,-0.4960939288139343,9.609378814697266,0.0,0.0,0.0
2481304,0.0,0.0,0.0,0.0,-0.07812502980232239,-0.4960939288139343,9.542972564697266,0.0,0.0,0.0
2487584,0.0,0.0,0.0,0.0,-0.039062514901161194,-0.5742189288139343,9.687503814697266,0.0,0.0,0.0
2493556,0.0,0.0,0.0,0.0,-0.039062514901161194,-0.5742189288139343,9.652347564697266,0.0,0.0,0.0
2498796,0.0,0.0,0.0,0.0,-0.039062514901161194,-0.5351564288139343,9.609378814697266,0.0,0.0,0.0
2504028,0.0,0.0,0.0,0.0,-0.07812502980232239,-0.5351564288139343,9.648441314697266,0.0,0.0,0.0
2509696,0.0,0.0,0.0,0.0,-0.07812502980232239,-0.4960939288139343,9.582035064697266,0.0,0.0,0.0
2514532,0.0,0.0,0.0,0.0,-0.07812502980232239,-0.4960939288139343,9.609378814697266,0.0,0.0,0.0
2521348,0.0,0.0,0.0,0.0,-0.07812502980232239,-0.4960939288139343,9.609378814697266,0.001953126396983862,-0.001953126396983862,0.0
2528252,0.0,0.0,0.0,0.0,-0.07812502980232239,-0.4960939288139343,9.609378814697266,0.003906252793967724,-0.001953126396983862,0.0
2532564,0.0,0.0,0.0,0.0,-0.07812502980232239,-0.4960939288139343,9.609378814697266,0.003906252793967724,-0.001953126396983862,0.0
2537580,0.0,0.0,0.0,0.0,-0.07812502980232239,-0.4960939288139343,9.609378814697266,0.001953126396983862,0.005859379190951586,-0.001953126396983862
2542316,0.0,0.0,0.0,0.0,0.0,-0.4960939288139343,9.691410064697266,0.001953126396983862,0.005859379190951586,-0.001953126396983862
2547724,0.0,0.0,0.0,0.0,0.0,-0.4960939288139343,9.691410064697266,0.0,0.001953126396983862,0.0
2552948,0.0,0.0,0.0,0.0,-0.039062514901161194,-0.4960939288139343,9.609378814697266,0.0,0.001953126396983862,0.0
2558000,0.0,0.0,0.0,0.0,-0.039062514901161194,-0.4960939288139343,9.609378814697266,0.001953126396983862,0.0,0.001953126396983862
2563608,0.0,0.0,0.0,0.0,-0.039062514901161194,-0.5351564288139343,9.582035064697266,0.001953126396983862,0.0,0.001953126396983862
2569532,0.0,0.0,0.0,0.0,-0.039062514901161194,-0.5351564288139343,9.582035064697266,0.001953126396983862,0.001953126396983862,0.001953126396983862
2573856,0.0,0.0,0.0,0.0,-0.07812502980232239,-0.4960939288139343,9.542972564697266,0.001953126396983862,0.001953126396983862,0.001953126396983862
2578936,0.0,0.0,0.0,0.0,-0.07812502980232239,-0.4960939288139343,9.542972564697266,0.001953126396983862,0.001953126396983862,0.0
2584748,0.0,0.0,0.0,0.0,-0.07812502980232239,-0.4960939288139343,9.609378814697266,0.001953126396983862,0.001953126396983862,0.0
2590068,0.0,0.0,0.0,0.0,-0.07812502980232239,-0.4960939288139343,9.582035064697266,0.001953126396983862,0.001953126396983862,0.0
2594996,0.0,0.0,0.0,0.0,-0.07812502980232239,-0.4960939288139343,9.582035064697266,-0.003906252793967724,0.001953126396983862,0.0
2600388,-0.010253913700580597,-0.024169938638806343,0.9701545238494873,0.24102801084518433,-0.07812502980232239,-0.4960939288139343,9.582035064697266,-0.003906252793967724,0.001953126396983862,0.0
2606288,-0.010253913700580597,-0.024169938638806343,0.9701545238494873,0.24102801084518433,-0.039062514901161194,-0.4609376788139343,9.582035064697266,-0.003906252793967724,0.001953126396983862,0.0
2612020,-0.010253913700580597,-0.024169938638806343,0.9701545238494873,0.24102801084518433,-0.07812502980232239,-0.4960939288139343,9.609378814697266,-0.003906252793967724,0.001953126396983862,0.0
2617100,-0.010253913700580597,-0.024169938638806343,0.9701545238494873,0.24102801084518433,-0.07812502980232239,-0.4960939288139343,9.609378814697266,0.0,-0.001953126396983862,0.0
2622360,-0.010253913700580597,-0.024169938638806343,0.9701545238494873,0.24102801084518433,-0.039062514901161194,-0.5351564288139343,9.582035064697266,0.0,-0.001953126396983862,0.0
2627780,-0.010253913700580597,-0.024169938638806343,0.9701545238494873,0.24102801084518433,-0.039062514901161194,-0.5351564288139343,9.582035064697266,0.0,0.001953126396983862,-0.001953126396983862
2632500,-0.010253913700580597,-0.024169938638806343,0.9701545238494873,0.24102801084518433,-0.039062514901161194,-0.5351564288139343,9.609378814697266,0.0,0.001953126396983862,-0.001953126396983862
2637812,-0.010253913700580597,-0.024169938638806343,0.9701545238494873,0.24102801084518433,-0.039062514901161194,-0.5351564288139343,9.609378814697266,0.001953126396983862,0.001953126396983862,0.0
2642512,-0.010253913700580597,-0.024169938638806343,0.9701545238494873,0.24102801084518433,-0.039062514901161194,-0.4960939288139343,9.609378814697266,0.001953126396983862,0.001953126396983862,0.0
2647576,-0.010253913700580597,-0.024169938638806343,0.9701545238494873,0.24102801084518433,-0.039062514901161194,-0.4960939288139343,9.609378814697266,0.0,0.003906252793967724,0.0
2652844,-0.010253913700580597,-0.024169938638806343,0.9701545238494873,0.24102801084518433,-0.07812502980232239,-0.5742189288139343,9.652347564697266,0.0,0.003906252793967724,0.0
2658384,-0.010253913700580597,-0.024169938638806343,0.9701545238494873,0.24102801084518433,-0.07812502980232239,-0.5742189288139343,9.652347564697266,0.0,0.001953126396983862,-0.001953126396983862
2662720,-0.010253913700580597,-0.024169938638806343,0.9701545238494873,0.24102801084518433,-0.039062514901161194,-0.4960939288139343,9.648441314697266,0.0,0.001953126396983862,-0.001953126396983862
2668232,-0.010253913700580597,-0.024169938638806343,0.9701545238494873,0.24102801084518433,-0.039062514901161194,-0.4960939288139343,9.648441314697266,0.0,0.001953126396983862,0.0
2672572,-0.010253913700580597,-0.024169938638806343,0.9701545238494873,0.24102801084518433,-0.039062514901161194,-0.5351564288139343,9.582035064697266,0.0,0.001953126396983862,0.0
2677992,-0.010253913700580597,-0.024169938638806343,0.9701545238494873,0.24102801084518433,-0.039062514901161194,-0.5351564288139343,9.582035064697266,0.0,0.0,-0.001953126396983862
2682700,-0.010253913700580597,-0.024169938638806343,0.9701545238494873,0.24102801084518433,-0.039062514901161194,-0.4960939288139343,9.582035064697266,0.0,0.0,-0.001953126396983862
2688256,-0.010253913700580597,-0.024169938638806343,0.9701545238494873,0.24102801084518433,-0.039062514901161194,-0.4960939288139343,9.582035064697266,0.0,0.0,-0.001953126396983862
2692648,-0.010253913700580597,-0.024169938638806343,0.9701545238494873,0.24102801084518433,0.0,-0.4960939288139343,9.609378814697266,0.0,0.0,-0.001953126396983862
2698560,-0.010253913700580597,-0.024169938638806343,0.9701545238494873,0.24102801084518433,0.0,-0.4960939288139343,9.609378814697266,-0.001953126396983862,0.001953126396983862,0.003906252793967724
2704568,-0.010253913700580597,-0.024169938638806343,0.9701545238494873,0.24102801084518433,-0.039062514901161194,-0.4960939288139343,9.609378814697266,-0.001953126396983862,0.001953126396983862,0.003906252793967724
2709252,-0.010253913700580597,-0.024169938638806343,0.9701545238494873,0.24102801084518433,-0.07812502980232239,-0.4960939288139343,9.609378814697266,-0.001953126396983862,0.001953126396983862,0.003906252793967724
2715376,-0.010253913700580597,-0.024169938638806343,0.9701545238494873,0.24102801084518433,-0.07812502980232239,-0.4960939288139343,9.648441314697266,-0.001953126396983862,0.001953126396983862,0.003906252793967724
2720668,-0.010253913700580597,-0.024169938638806343,0.9701545238494873,0.24102801084518433,-0.07812502980232239,-0.5351564288139343,9.582035064697266,-0.001953126396983862,0.001953126396983862,0.003906252793967724
2726108,-0.010253913700580597,-0.024169938638806343,0.9701545238494873,0.24102801084518433,-0.07812502980232239,-0.5351564288139343,9.582035064697266,0.001953126396983862,0.0,0.0
2730808,-0.010253913700580597,-0.024169938638806343,0.9701545238494873,0.24102801084518433,-0.039062514901161194,-0.5351564288139343,9.648441314697266,0.001953126396983862,0.0,0.0
2736312,-0.010253913700580597,-0.024169938638806343,0.9701545238494873,0.24102801084518433,-0.039062514901161194,-0.5351564288139343,9.648441314697266,0.0,0.003906252793967724,0.0
2740996,-0.010253913700580597,-0.024169938638806343,0.9701545238494873,0.24102801084518433,-0.07812502980232239,-0.5351564288139343,9.609378814697266,0.0,0.003906252793967724,0.0
2746620,-0.010253913700580597,-0.024169938638806343,0.9701545238494873,0.24102801084518433,-0.07812502980232239,-0.5351564288139343,9.609378814697266,0.003906252793967724,0.0,0.0
2751316,-0.010253913700580597,-0.024169938638806343,0.9701545238494873,0.24102801084518433,-0.039062514901161194,-0.5351564288139343,9.609378814697266,0.003906252793967724,0.0,0.0
2756736,-0.010253913700580597,-0.024169938638806343,0.9701545238494873,0.24102801084518433,-0.039062514901161194,-0.5351564288139343,9.609378814697266,0.001953126396983862,0.0,0.0
2762016,-0.010253913700580597,-0.024169938638806343,0.9701545238494873,0.24102801084518433,-0.07812502980232239,-0.5351564288139343,9.691410064697266,0.001953126396983862,0.0,0.0
2767776,-0.010253913700580597,-0.024169938638806343,0.9701545238494873,0.24102801084518433,-0.07812502980232239,-0.5351564288139343,9.691410064697266,0.0,0.001953126396983862,-0.001953126396983862
2772120,-0.010253913700580597,-0.024169938638806343,0.9701545238494873,0.24102801084518433,-0.07812502980232239,-0.4960939288139343,9.648441314697266,0.0,0.001953126396983862,-0.001953126396983862
2777172,-0.010253913700580597,-0.024169938638806343,0.9701545238494873,0.24102801084518433,-0.07812502980232239,-0.4960939288139343,9.648441314697266,0.003906252793967724,0.0,-0.001953126396983862
2784104,-0.010253913700580597,-0.024169938638806343,0.9701545238494873,0.24102801084518433,-0.039062514901161194,-0.5351564288139343,9.582035064697266,0.003906252793967724,0.0,-0.001953126396983862
2789388,-0.010253913700580597,-0.024169938638806343,0.9701545238494873,0.24102801084518433,-0.11328128725290298,-0.4960939288139343,9.609378814697266,0.003906252793967724,0.0,-0.001953126396983862
2794632,-0.010253913700580597,-0.024169938638806343,0.9701545238494873,0.24102801084518433,-0.11328128725290298,-0.4960939288139343,9.609378814697266,-0.001953126396983862,0.001953126396983862,-0.001953126396983862
2800248,-0.010253913700580597,-0.024169938638806343,0.9701545238494873,0.24102801084518433,-0.07812502980232239,-0.4960939288139343,9.582035064697266,-0.001953126396983862,0.001953126396983862,-0.001953126396983862
2806136,-0.010253913700580597,-0.024169938638806343,0.9701545238494873,0.24102801084518433,-0.07812502980232239,-0.4960939288139343,9.582035064697266,0.0,0.0,0.0
2810844,-0.010253913700580597,-0.024169938638806343,0.9701545238494873,0.24102801084518433,-0.07812502980232239,-0.4609376788139343,9.648441314697266,0.0,0.0,0.0
2816244,-0.010253913700580597,-0.024169938638806343,0.9701545238494873,0.24102801084518433,-0.07812502980232239,-0.4609376788139343,9.648441314697266,-0.001953126396983862,0.001953126396983862,0.0
2821980,-0.010253913700580597,-0.024169938638806343,0.9701545238494873,0.24102801084518433,-0.039062514901161194,-0.4960939288139343,9.609378814697266,-0.001953126396983862,0.001953126396983862,0.0
2827512,-0.010192878544330597,-0.024169938638806343,0.9701545238494873,0.24102801084518433,-0.039062514901161194,-0.4960939288139343,9.609378814697266,-0.001953126396983862,0.001953126396983862,0.0
2832952,-0.010192878544330597,-0.024169938638806343,0.9701545238494873,0.24102801084518433,-0.07812502980232239,-0.4960939288139343,9.648441314697266,-0.001953126396983862,0.001953126396983862,0.0
2838280,-0.010192878544330597,-0.024169938638806343,0.9701545238494873,0.24102801084518433,-0.11328128725290298,-0.5351564288139343,9.582035064697266,-0.001953126396983862,0.001953126396983862,0.0
2843520,-0.010192878544330597,-0.024169938638806343,0.9701545238494873,0.24102801084518433,-0.11328128725290298,-0.5351564288139343,9.582035064697266,0.0,-0.005859379190951586,0.001953126396983862
2848788,-0.010192878544330597,-0.024169938638806343,0.9701545238494873,0.24102801084518433,-0.07812502980232239,-0.5351564288139343,9.730472564697266,0.0,-0.005859379190951586,0.001953126396983862
2853856,-0.010192878544330597,-0.024169938638806343,0.9701545238494873,0.24102801084518433,-0.07812502980232239,-0.5351564288139343,9.730472564697266,0.0,0.0,0.001953126396983862
2859144,-0.010192878544330597,-0.024169938638806343,0.9701545238494873,0.24102801084518433,-0.039062514901161194,-0.4960939288139343,9.609378814697266,0.0,0.0,0.001953126396983862
2865244,-0.010192878544330597,-0.024169938638806343,0.9701545238494873,0.24102801084518433,-0.039062514901161194,-0.4960939288139343,9.609378814697266,-0.003906252793967724,-0.001953126396983862,-0.001953126396983862
2870520,-0.010192878544330597,-0.024169938638806343,0.9701545238494873,0.24102801084518433,-0.07812502980232239,-0.4960939288139343,9.648441314697266,-0.003906252793967724,-0.001953126396983862,-0.001953126396983862
2875708,-0.010192878544330597,-0.024169938638806343,0.9701545238494873,0.24102801084518433,-0.07812502980232239,-0.4960939288139343,9.648441314697266,0.0,0.0,0.0
2880020,-0.010192878544330597,-0.024169938638806343,0.9701545238494873,0.24102801084518433,-0.11328128725290298,-0.5351564288139343,9.609378814697266,0.0,0.0,0.0
2885400,-0.010192878544330597,-0.024169938638806343,0.9701545238494873,0.24102801084518433,-0.11328128725290298,-0.5351564288139343,9.609378814697266,0.0,-0.001953126396983862,0.0
2889716,-0.010192878544330597,-0.024169938638806343,0.9701545238494873,0.24102801084518433,-0.07812502980232239,-0.4960939288139343,9.582035064697266,0.0,-0.001953126396983862,0.0
2895484,-0.010192878544330597,-0.024169938638806343,0.9701545238494873,0.24102801084518433,-0.07812502980232239,-0.4960939288139343,9.582035064697266,0.0,-0.001953126396983862,0.0
2900184,-0.010192878544330597,-0.024169938638806343,0.9701545238494873,0.24102801084518433,-0.07812502980232239,-0.5351564288139343,9.648441314697266,0.0,-0.001953126396983862,0.0
2905584,-0.010192878544330597,-0.024169938638806343,0.9701545238494873,0.24102801084518433,-0.07812502980232239,-0.5351564288139343,9.648441314697266,0.001953126396983862,-0.001953126396983862,0.0
2910300,-0.010192878544330597,-0.024169938638806343,0.9701545238494873,0.24102801084518433,-0.039062514901161194,-0.4960939288139343,9.609378814697266,0.001953126396983862,-0.001953126396983862,0.0
2915336,-0.010192878544330597,-0.024169938638806343,0.9701545238494873,0.24102801084518433,-0.039062514901161194,-0.4960939288139343,9.609378814697266,-0.001953126396983862,0.0,0.0
2920040,-0.010192878544330597,-0.024169938638806343,0.9701545238494873,0.24102801084518433,-0.039062514901161194,-0.5351564288139343,9.609378814697266,-0.001953126396983862,0.0,0.0
2925464,-0.010192878544330597,-0.024169938638806343,0.9701545238494873,0.24102801084518433,-0.039062514901161194,-0.5351564288139343,9.609378814697266,0.0,-0.001953126396983862,-0.001953126396983862
2930152,-0.010192878544330597,-0.024169938638806343,0.9701545238494873,0.24102801084518433,-0.07812502980232239,-0.5351564288139343,9.648441314697266,0.0,-0.001953126396983862,-0.001953126396983862
2935220,-0.010192878544330597,-0.024169938638806343,0.9701545238494873,0.24102801084518433,-0.07812502980232239,-0.5351564288139343,9.648441314697266,0.0,-0.001953126396983862,0.0
2939920,-0.010192878544330597,-0.024169938638806343,0.9701545238494873,0.24102801084518433,-0.07812502980232239,-0.4609376788139343,9.609378814697266,0.0,-0.001953126396983862,0.0
2945668,-0.010192878544330597,-0.024169938638806343,0.9701545238494873,0.24102801084518433,-0.07812502980232239,-0.4609376788139343,9.609378814697266,0.001953126396983862,0.001953126396983862,0.0
2950012,-0.010192878544330597,-0.024169938638806343,0.9701545238494873,0.24102801084518433,-0.039062514901161194,-0.4960939288139343,9.648441314697266,0.001953126396983862,0.001953126396983862,0.0
2955428,-0.010192878544330597,-0.024169938638806343,0.9701545238494873,0.24102801084518433,-0.039062514901161194,-0.4960939288139343,9.648441314697266,-0.001953126396983862,0.0,0.001953126396983862
2960232,-0.010192878544330597,-0.024169938638806343,0.9701545238494873,0.24102801084518433,-0.039062514901161194,-0.5351564288139343,9.648441314697266,-0.001953126396983862,0.0,0.001953126396983862
2965680,-0.010192878544330597,-0.024169938638806343,0.9701545238494873,0.24102801084518433,-0.039062514901161194,-0.5351564288139343,9.648441314697266,-0.001953126396983862,0.001953126396983862,-0.001953126396983862
2970044,-0.010192878544330597,-0.024169938638806343,0.9701545238494873,0.24102801084518433,0.0,-0.4960939288139343,9.648441314697266,-0.001953126396983862,0.001953126396983862,-0.001953126396983862
2975164,-0.010192878544330597,-0.024169938638806343,0.9701545238494873,0.24102801084518433,0.0,-0.4960939288139343,9.648441314697266,-0.005859379190951586,0.003906252793967724,0.0
2981452,-0.010192878544330597,-0.024169938638806343,0.9701545238494873,0.24102801084518433,-0.07812502980232239,-0.4960939288139343,9.609378814697266,-0.005859379190951586,0.003906252793967724,0.0
2986740,-0.010192878544330597,-0.024169938638806343,0.9701545238494873,0.24102801084518433,-0.039062514901161194,-0.4960939288139343,9.609378814697266,-0.005859379190951586,0.003906252793967724,0.0
2991824,-0.010192878544330597,-0.024169938638806343,0.9701545238494873,0.24102801084518433,-0.039062514901161194,-0.4960939288139343,9.609378814697266,0.0,0.0,0.0
2997480,-0.010192878544330597,-0.024169938638806343,0.9701545238494873,0.24102801084518433,-0.039062514901161194,-0.5351564288139343,9.609378814697266,0.0,0.0,0.0
3003368,-0.010192878544330597,-0.024169938638806343,0.9701545238494873,0.24102801084518433,-0.039062514901161194,-0.5351564288139343,9.609378814697266,-0.001953126396983862,0.001953126396983862,0.001953126396983862
3007700,-0.010192878544330597,-0.024169938638806343,0.9701545238494873,0.24102801084518433,-0.039062514901161194,-0.4960939288139343,9.648441314697266,-0.001953126396983862,0.001953126396983862,0.001953126396983862
3013480,-0.010192878544330597,-0.024169938638806343,0.9701545238494873,0.24102801084518433,-0.039062514901161194,-0.4960939288139343,9.648441314697266,-0.003906252793967724,0.003906252793967724,0.0
3018192,-0.010192878544330597,-0.024169938638806343,0.9701545238494873,0.24102801084518433,-0.07812502980232239,-0.5351564288139343,9.609378814697266,-0.003906252793967724,0.003906252793967724,0.0
3023592,-0.010192878544330597,-0.024169938638806343,0.9701545238494873,0.24102801084518433,-0.07812502980232239,-0.5351564288139343,9.609378814697266,-0.001953126396983862,0.001953126396983862,0.0
3028484,-0.010192878544330597,-0.024169938638806343,0.9701545238494873,0.24102801084518433,-0.039062514901161194,-0.4960939288139343,9.648441314697266,-0.001953126396983862,0.001953126396983862,0.0
3033576,-0.010192878544330597,-0.024169938638806343,0.9701545238494873,0.24102801084518433,-0.039062514901161194,-0.4960939288139343,9.648441314697266,0.0,-0.001953126396983862,0.0
3038376,-0.010192878544330597,-0.024169938638806343,0.9701545238494873,0.24102801084518433,-0.039062514901161194,-0.5351564288139343,9.609378814697266,0.0,-0.001953126396983862,0.0
3043772,-0.010192878544330597,-0.024169938638806343,0.9701545238494873,0.24102801084518433,-0.039062514901161194,-0.5351564288139343,9.609378814697266,0.0,0.001953126396983862,0.001953126396983862
3049048,-0.010192878544330597,-0.024169938638806343,0.9701545238494873,0.24102801084518433,-0.039062514901161194,-0.4960939288139343,9.609378814697266,0.0,0.001953126396983862,0.001953126396983862
3054108,-0.010070808231830597,-0.024414079263806343,0.9701545238494873,0.24096697568893433,-0.039062514901161194,-0.4960939288139343,9.609378814697266,0.0,0.001953126396983862,0.001953126396983862
3059008,-0.010070808231830597,-0.024414079263806343,0.9701545238494873,0.24096697568893433,-0.039062514901161194,-0.4960939288139343,9.582035064697266,0.0,0.001953126396983862,0.001953126396983862
3064420,-0.010070808231830597,-0.024414079263806343,0.9701545238494873,0.24096697568893433,-0.039062514901161194,-0.4960939288139343,9.582035064697266,0.0,-0.001953126396983862,0.0
3068752,-0.010070808231830597,-0.024414079263806343,0.9701545238494873,0.24096697568893433,-0.07812502980232239,-0.4609376788139343,9.648441314697266,0.0,-0.001953126396983862,0.0
3073840,-0.010070808231830597,-0.024414079263806343,0.9701545238494873,0.24096697568893433,-0.07812502980232239,-0.4609376788139343,9.648441314697266,0.001953126396983862,-0.001953126396983862,0.0
3080072,-0.010070808231830597,-0.024414079263806343,0.9701545238494873,0.24096697568893433,-0.039062514901161194,-0.5351564288139343,9.648441314697266,0.001953126396983862,-0.001953126396983862,0.0
3085412,-0.010070808231830597,-0.024414079263806343,0.9701545238494873,0.24096697568893433,0.0,-0.4960939288139343,9.648441314697266,0.001953126396983862,-0.001953126396983862,0.0
3090492,-0.010070808231830597,-0.024414079263806343,0.9701545238494873,0.24096697568893433,0.0,-0.4960939288139343,9.648441314697266,-0.001953126396983862,0.0,-0.001953126396983862
3096124,-0.010070808231830597,-0.024414079263806343,0.9701545238494873,0.24096697568893433,-0.039062514901161194,-0.4609376788139343,9.609378814697266,-0.001953126396983862,0.0,-0.001953126396983862
3101572,-0.010070808231830597,-0.024414079263806343,0.9701545238494873,0.24096697568893433,-0.039062514901161194,-0.4609376788139343,9.609378814697266,0.0,0.001953126396983862,0.0
3106888,-0.010070808231830597,-0.024414079263806343,0.9701545238494873,0.24096697568893433,-0.039062514901161194,-0.4960939288139343,9.609378814697266,0.0,0.001953126396983862,0.0
3112072,-0.010070808231830597,-0.024414079263806343,0.9701545238494873,0.24096697568893433,-0.039062514901161194,-0.4960939288139343,9.609378814697266,0.001953126396983862,-0.001953126396983862,0.001953126396983862
3116760,-0.010070808231830597,-0.024414079263806343,0.9701545238494873,0.24096697568893433,-0.07812502980232239,-0.5351564288139343,9.609378814697266,0.001953126396983862,-0.001953126396983862,0.001953126396983862
3121888,-0.010070808231830597,-0.024414079263806343,0.9701545238494873,0.24096697568893433,-0.07812502980232239,-0.5351564288139343,9.609378814697266,0.005859379190951586,0.0,-0.001953126396983862
3126580,-0.010070808231830597,-0.024414079263806343,0.9701545238494873,0.24096697568893433,-0.039062514901161194,-0.4960939288139343,9.648441314697266,0.005859379190951586,0.0,-0.001953126396983862
3131772,-0.010070808231830597,-0.024414079263806343,0.9701545238494873,0.24096697568893433,-0.039062514901161194,-0.4960939288139343,9.648441314697266,0.001953126396983862,0.001953126396983862,-0.001953126396983862
3136472,-0.010070808231830597,-0.024414079263806343,0.9701545238494873,0.24096697568893433,-0.039062514901161194,-0.5351564288139343,9.648441314697266,0.001953126396983862,0.001953126396983862,-0.001953126396983862
3141896,-0.010070808231830597,-0.024414079263806343,0.9701545238494873,0.24096697568893433,-0.039062514901161194,-0.5351564288139343,9.648441314697266,0.0,-0.003906252793967724,-0.001953126396983862
3146628,-0.010070808231830597,-0.024414079263806343,0.9701545238494873,0.24096697568893433,0.0,-0.4960939288139343,9.609378814697266,0.0,-0.003906252793967724,-0.001953126396983862
3152408,-0.010070808231830597,-0.024414079263806343,0.9701545238494873,0.24096697568893433,0.0,-0.4960939288139343,9.609378814697266,-0.005859379190951586,0.0,0.0
3157104,-0.010070808231830597,-0.024414079263806343,0.9701545238494873,0.24096697568893433,-0.07812502980232239,-0.5351564288139343,9.609378814697266,-0.005859379190951586,0.0,0.0
3162568,-0.010070808231830597,-0.024414079263806343,0.9701545238494873,0.24096697568893433,-0.07812502980232239,-0.5351564288139343,9.609378814697266,-0.003906252793967724,0.0,0.001953126396983862
3166928,-0.010070808231830597,-0.024414079263806343,0.9701545238494873,0.24096697568893433,-0.039062514901161194,-0.5351564288139343,9.648441314697266,-0.003906252793967724,0.0,0.001953126396983862
3172560,-0.010070808231830597,-0.024414079263806343,0.9701545238494873,0.24096697568893433,-0.039062514901161194,-0.5351564288139343,9.648441314697266,-0.003906252793967724,0.001953126396983862,0.0
3177832,-0.010070808231830597,-0.024414079263806343,0.9701545238494873,0.24096697568893433,-0.039062514901161194,-0.4960939288139343,9.609378814697266,-0.003906252793967724,0.001953126396983862,0.0
3183672,-0.009948737919330597,-0.024536149576306343,0.9701545238494873,0.24096697568893433,-0.039062514901161194,-0.4960939288139343,9.609378814697266,-0.003906252793967724,0.001953126396983862,0.0
3188724,-0.009948737919330597,-0.024536149576306343,0.9701545238494873,0.24096697568893433,-0.039062514901161194,-0.4960939288139343,9.609378814697266,-0.001953126396983862,0.001953126396983862,-0.001953126396983862
3194004,-0.009948737919330597,-0.024536149576306343,0.9701545238494873,0.24096697568893433,-0.039062514901161194,-0.4609376788139343,9.648441314697266,-0.001953126396983862,0.001953126396983862,-0.001953126396983862
3199448,-0.009948737919330597,-0.024536149576306343,0.9701545238494873,0.24096697568893433,-0.039062514901161194,-0.5351564288139343,9.609378814697266,-0.001953126396983862,0.001953126396983862,-0.001953126396983862
3204740,-0.009948737919330597,-0.024536149576306343,0.9701545238494873,0.24096697568893433,-0.039062514901161194,-0.5351564288139343,9.648441314697266,-0.001953126396983862,0.001953126396983862,-0.001953126396983862
3209808,-0.009948737919330597,-0.024536149576306343,0.9701545238494873,0.24096697568893433,-0.039062514901161194,-0.5351564288139343,9.648441314697266,0.001953126396983862,-0.001953126396983862,0.0
3214532,-0.009948737919330597,-0.024536149576306343,0.9701545238494873,0.24096697568893433,-0.07812502980232239,-0.5351564288139343,9.609378814697266,0.001953126396983862,-0.001953126396983862,0.0
3219604,-0.009948737919330597,-0.024536149576306343,0.9701545238494873,0.24096697568893433,-0.07812502980232239,-0.5351564288139343,9.609378814697266,0.001953126396983862,-0.001953126396983862,-0.001953126396983862
3224868,-0.009948737919330597,-0.024536149576306343,0.9701545238494873,0.24096697568893433,-0.07812502980232239,-0.4960939288139343,9.609378814697266,0.001953126396983862,-0.001953126396983862,-0.001953126396983862
3230428,-0.009948737919330597,-0.024536149576306343,0.9701545238494873,0.24096697568893433,-0.07812502980232239,-0.4960939288139343,9.609378814697266,-0.001953126396983862,0.0,0.0
3235696,-0.009948737919330597,-0.024536149576306343,0.9701545238494873,0.24096697568893433,-0.039062514901161194,-0.5351564288139343,9.691410064697266,-0.001953126396983862,0.0,0.0
3241108,-0.009948737919330597,-0.024536149576306343,0.9701545238494873,0.24096697568893433,-0.039062514901161194,-0.5351564288139343,9.691410064697266,0.0,-0.001953126396983862,0.001953126396983862
3245800,-0.009948737919330597,-0.024536149576306343,0.9701545238494873,0.24096697568893433,-0.07812502980232239,-0.5351564288139343,9.609378814697266,0.0,-0.001953126396983862,0.001953126396983862
3250908,-0.009948737919330597,-0.024536149576306343,0.9701545238494873,0.24096697568893433,-0.07812502980232239,-0.5351564288139343,9.609378814697266,0.0,-0.001953126396983862,0.0
3255688,-0.009948737919330597,-0.024536149576306343,0.9701545238494873,0.24096697568893433,-0.039062514901161194,-0.5351564288139343,9.648441314697266,0.0,-0.001953126396983862,0.0
3260792,-0.009948737919330597,-0.024536149576306343,0.9701545238494873,0.24096697568893433,-0.039062514901161194,-0.5351564288139343,9.648441314697266,0.001953126396983862,-0.001953126396983862,0.0
3265580,-0.009948737919330597,-0.024536149576306343,0.9701545238494873,0.24096697568893433,-0.07812502980232239,-0.4960939288139343,9.609378814697266,0.001953126396983862,-0.001953126396983862,0.0
3270652,-0.009948737919330597,-0.024536149576306343,0.9701545238494873,0.24096697568893433,-0.07812502980232239,-0.4960939288139343,9.609378814697266,0.0,-0.001953126396983862,0.0
3275468,-0.009948737919330597,-0.024536149576306343,0.9701545238494873,0.24096697568893433,-0.07812502980232239,-0.5351564288139343,9.691410064697266,0.0,-0.001953126396983862,0.0
3281292,-0.009948737919330597,-0.024536149576306343,0.9701545238494873,0.24096697568893433,-0.07812502980232239,-0.5351564288139343,9.691410064697266,0.0,-0.001953126396983862,0.0
3286172,-0.009948737919330597,-0.024536149576306343,0.9701545238494873,0.24096697568893433,-0.039062514901161194,-0.5351564288139343,9.648441314697266,0.0,-0.001953126396983862,0.0
3291580,-0.009948737919330597,-0.024536149576306343,0.9701545238494873,0.24096697568893433,-0.039062514901161194,-0.5351564288139343,9.648441314697266,0.001953126396983862,-0.001953126396983862,0.001953126396983862
3296296,-0.009948737919330597,-0.024536149576306343,0.9701545238494873,0.24096697568893433,-0.039062514901161194,-0.4960939288139343,9.648441314697266,0.001953126396983862,-0.001953126396983862,0.001953126396983862
3302088,-0.009948737919330597,-0.024536149576306343,0.9701545238494873,0.24096697568893433,-0.039062514901161194,-0.4960939288139343,9.648441314697266,0.0,0.0,0.0
3308244,-0.009948737919330597,-0.024536149576306343,0.9701545238494873,0.24096697568893433,-0.039062514901161194,-0.4960939288139343,9.648441314697266,0.0,0.0,0.0
3313616,-0.009948737919330597,-0.024536149576306343,0.9701545238494873,0.24096697568893433,-0.07812502980232239,-0.5351564288139343,9.691410064697266,0.0,0.0,0.0
3318676,-0.009948737919330597,-0.024536149576306343,0.9701545238494873,0.24096697568893433,-0.07812502980232239,-0.5351564288139343,9.691410064697266,0.003906252793967724,-0.001953126396983862,0.0
3323948,-0.009948737919330597,-0.024536149576306343,0.9701545238494873,0.24096697568893433,-0.07812502980232239,-0.5351564288139343,9.648441314697266,0.003906252793967724,-0.001953126396983862,0.0
3329424,-0.009948737919330597,-0.024536149576306343,0.9701545238494873,0.24096697568893433,-0.07812502980232239,-0.5351564288139343,9.648441314697266,0.0,-0.001953126396983862,-0.001953126396983862
3334128,-0.009948737919330597,-0.024536149576306343,0.9701545238494873,0.24096697568893433,-0.07812502980232239,-0.5351564288139343,9.648441314697266,0.0,-0.001953126396983862,-0.001953126396983862
3339560,-0.009948737919330597,-0.024536149576306343,0.9701545238494873,0.24096697568893433,-0.07812502980232239,-0.5351564288139343,9.648441314697266,0.0,0.0,0.0
3344400,-0.009948737919330597,-0.024536149576306343,0.9701545238494873,0.24096697568893433,-0.039062514901161194,-0.4609376788139343,9.582035064697266,0.0,0.0,0.0
3349440,-0.009948737919330597,-0.024536149576306343,0.9701545238494873,0.24096697568893433,-0.039062514901161194,-0.4609376788139343,9.582035064697266,0.0,-0.001953126396983862,0.001953126396983862
3354136,-0.009948737919330597,-0.024536149576306343,0.9701545238494873,0.24096697568893433,-0.039062514901161194,-0.5351564288139343,9.582035064697266,0.0,-0.001953126396983862,0.001953126396983862
3359232,-0.009948737919330597,-0.024536149576306343,0.9701545238494873,0.24096697568893433,-0.039062514901161194,-0.5351564288139343,9.582035064697266,-0.001953126396983862,-0.001953126396983862,0.0
3363924,-0.009948737919330597,-0.024536149576306343,0.9701545238494873,0.24096697568893433,-0.07812502980232239,-0.4960939288139343,9.609378814697266,-0.001953126396983862,-0.001953126396983862,0.0
3368976,-0.009948737919330597,-0.024536149576306343,0.9701545238494873,0.24096697568893433,-0.07812502980232239,-0.4960939288139343,9.609378814697266,0.001953126396983862,0.0,0.0
3374240,-0.009948737919330597,-0.024536149576306343,0.9701545238494873,0.24096697568893433,-0.039062514901161194,-0.4960939288139343,9.648441314697266,0.001953126396983862,0.0,0.0
3379732,-0.009948737919330597,-0.024536149576306343,0.9701545238494873,0.24096697568893433,-0.039062514901161194,-0.4960939288139343,9.648441314697266,0.0,0.0,-0.001953126396983862
3384064,-0.009948737919330597,-0.024536149576306343,0.9701545238494873,0.24096697568893433,-0.07812502980232239,-0.5742189288139343,9.613285064697266,0.0,0.0,-0.001953126396983862
3389496,-0.009948737919330597,-0.024536149576306343,0.9701545238494873,0.24096697568893433,-0.07812502980232239,-0.5742189288139343,9.613285064697266,0.001953126396983862,0.001953126396983862,-0.001953126396983862
3394764,-0.009948737919330597,-0.024536149576306343,0.9701545238494873,0.24096697568893433,-0.039062514901161194,-0.4960939288139343,9.582035064697266,0.001953126396983862,0.001953126396983862,-0.001953126396983862
3400204,-0.009765632450580597,-0.024597184732556343,0.9701545238494873,0.24102801084518433,-0.039062514901161194,-0.4960939288139343,9.582035064697266,0.001953126396983862,0.001953126396983862,-0.001953126396983862
3404568,-0.009765632450580597,-0.024597184732556343,0.9701545238494873,0.24102801084518433,-0.039062514901161194,-0.4960939288139343,9.582035064697266,0.0,0.001953126396983862,0.0
3410000,-0.009765632450580597,-0.024597184732556343,0.9701545238494873,0.24102801084518433,-0.039062514901161194,-0.4960939288139343,9.582035064697266,0.0,0.001953126396983862,0.0
3414404,-0.009765632450580597,-0.024597184732556343,0.9701545238494873,0.24102801084518433,-0.07812502980232239,-0.4960939288139343,9.609378814697266,0.0,0.001953126396983862,0.0
3420196,-0.009765632450580597,-0.024597184732556343,0.9701545238494873,0.24102801084518433,-0.07812502980232239,-0.4960939288139343,9.609378814697266,-0.001953126396983862,0.0,0.0
3424892,-0.009765632450580597,-0.024597184732556343,0.9701545238494873,0.24102801084518433,-0.07812502980232239,-0.4960939288139343,9.609378814697266,-0.001953126396983862,0.0,0.0
3430072,-0.009765632450580597,-0.024597184732556343,0.9701545238494873,0.24102801084518433,-0.07812502980232239,-0.4960939288139343,9.609378814697266,-0.001953126396983862,0.0,0.0
3435840,-0.009765632450580597,-0.024597184732556343,0.9701545238494873,0.24102801084518433,0.0,-0.5742189288139343,9.578128814697266,-0.001953126396983862,0.0,0.0
3440548,-0.009765632450580597,-0.024597184732556343,0.9701545238494873,0.24102801084518433,-0.07812502980232239,-0.4960939288139343,9.648441314697266,-0.001953126396983862,0.0,0.0
3444888,-0.009765632450580597,-0.024597184732556343,0.9701545238494873,0.24102801084518433,-0.07812502980232239,-0.4960939288139343,9.648441314697266,0.003906252793967724,-0.001953126396983862,-0.001953126396983862
3449960,-0.009765632450580597,-0.024597184732556343,0.9701545238494873,0.24102801084518433,-0.07812502980232239,-0.4960939288139343,9.648441314697266,0.003906252793967724,-0.001953126396983862,-0.001953126396983862
3456156,-0.009765632450580597,-0.024597184732556343,0.9701545238494873,0.24102801084518433,-0.07812502980232239,-0.5351564288139343,9.648441314697266,0.003906252793967724,-0.001953126396983862,-0.001953126396983862
3460856,-0.009765632450580597,-0.024597184732556343,0.9701545238494873,0.24102801084518433,-0.039062514901161194,-0.4960939288139343,9.582035064697266,0.003906252793967724,-0.001953126396983862,-0.001953126396983862
3465916,-0.009765632450580597,-0.024597184732556343,0.9701545238494873,0.24102801084518433,-0.039062514901161194,-0.4960939288139343,9.582035064697266,0.0,0.001953126396983862,-0.001953126396983862
3471212,-0.009765632450580597,-0.024597184732556343,0.9701545238494873,0.24102801084518433,-0.039062514901161194,-0.4609376788139343,9.648441314697266,0.0,0.001953126396983862,-0.001953126396983862
3477100,-0.009765632450580597,-0.024597184732556343,0.9701545238494873,0.24102801084518433,-0.039062514901161194,-0.4609376788139343,9.648441314697266,-0.001953126396983862,0.003906252793967724,-0.001953126396983862
3482020,-0.009765632450580597,-0.024597184732556343,0.9701545238494873,0.24102801084518433,-0.07812502980232239,-0.4960939288139343,9.609378814697266,-0.001953126396983862,0.003906252793967724,-0.001953126396983862
3487120,-0.009765632450580597,-0.024597184732556343,0.9701545238494873,0.24102801084518433,-0.07812502980232239,-0.4960939288139343,9.609378814697266,-0.003906252793967724,0.003906252793967724,0.001953126396983862
3491884,-0.009765632450580597,-0.024597184732556343,0.9701545238494873,0.24102801084518433,-0.07812502980232239,-0.4960939288139343,9.648441314697266,-0.003906252793967724,0.003906252793967724,0.001953126396983862
3497504,-0.009765632450580597,-0.024597184732556343,0.9701545238494873,0.24102801084518433,-0.07812502980232239,-0.4960939288139343,9.648441314697266,0.0,0.0,0.001953126396983862
3502224,-0.009765632450580597,-0.024597184732556343,0.9701545238494873,0.24102801084518433,-0.039062514901161194,-0.4609376788139343,9.582035064697266,0.0,0.0,0.001953126396983862
3507348,-0.009765632450580597,-0.024597184732556343,0.9701545238494873,0.24102801084518433,-0.039062514901161194,-0.4609376788139343,9.582035064697266,0.001953126396983862,-0.001953126396983862,0.001953126396983862
3512040,-0.009765632450580597,-0.024597184732556343,0.9701545238494873,0.24102801084518433,-0.039062514901161194,-0.5351564288139343,9.691410064697266,0.001953126396983862,-0.001953126396983862,0.001953126396983862
3517388,-0.009765632450580597,-0.024597184732556343,0.9701545238494873,0.24102801084518433,-0.039062514901161194,-0.5351564288139343,9.691410064697266,-0.001953126396983862,-0.001953126396983862,0.0
3522072,-0.009765632450580597,-0.024597184732556343,0.9701545238494873,0.24102801084518433,-0.039062514901161194,-0.5351564288139343,9.609378814697266,-0.001953126396983862,-0.001953126396983862,0.0
3527124,-0.009765632450580597,-0.024597184732556343,0.9701545238494873,0.24102801084518433,-0.039062514901161194,-0.5351564288139343,9.609378814697266,0.0,0.0,0.0
3531812,-0.009765632450580597,-0.024597184732556343,0.9701545238494873,0.24102801084518433,-0.039062514901161194,-0.5351564288139343,9.691410064697266,0.0,0.0,0.0
3537244,-0.009765632450580597,-0.024597184732556343,0.9701545238494873,0.24102801084518433,-0.039062514901161194,-0.5351564288139343,9.691410064697266,0.001953126396983862,0.0,0.0
3541940,-0.009765632450580597,-0.024597184732556343,0.9701545238494873,0.24102801084518433,-0.039062514901161194,-0.4960939288139343,9.648441314697266,0.001953126396983862,0.0,0.0
3547012,-0.009765632450580597,-0.024597184732556343,0.9701545238494873,0.24102801084518433,-0.039062514901161194,-0.4960939288139343,9.648441314697266,0.0,0.0,0.0
3551708,-0.009765632450580597,-0.024597184732556343,0.9701545238494873,0.24102801084518433,-0.039062514901161194,-0.4609376788139343,9.609378814697266,0.0,0.0,0.0
3557136,-0.009765632450580597,-0.024597184732556343,0.9701545238494873,0.24102801084518433,-0.039062514901161194,-0.4609376788139343,9.609378814697266,0.0,0.0,0.0
3561484,-0.009765632450580597,-0.024597184732556343,0.9701545238494873,0.24102801084518433,-0.039062514901161194,-0.4960939288139343,9.648441314697266,0.0,0.0,0.0
3566504,-0.009765632450580597,-0.024597184732556343,0.9701545238494873,0.24102801084518433,-0.039062514901161194,-0.4960939288139343,9.648441314697266,0.0,0.0,0.0
3571772,-0.009765632450580597,-0.024597184732556343,0.9701545238494873,0.24102801084518433,0.0,-0.4960939288139343,9.648441314697266,0.0,0.0,0.0
3577512,-0.009765632450580597,-0.024597184732556343,0.9701545238494873,0.24102801084518433,0.0,-0.4960939288139343,9.648441314697266,0.0,0.0,0.0
3582772,-0.009765632450580597,-0.024597184732556343,0.9701545238494873,0.24102801084518433,-0.07812502980232239,-0.4960939288139343,9.648441314697266,0.0,0.0,0.0
3588192,-0.009765632450580597,-0.024597184732556343,0.9701545238494873,0.24102801084518433,-0.07812502980232239,-0.4960939288139343,9.648441314697266,0.0,0.0,0.0
3594096,-0.009765632450580597,-0.024597184732556343,0.9701545238494873,0.24102801084518433,-0.039062514901161194,-0.4960939288139343,9.609378814697266,0.0,0.0,0.0
3599344,-0.009765632450580597,-0.024597184732556343,0.9701545238494873,0.24102801084518433,-0.07812502980232239,-0.5351564288139343,9.648441314697266,0.0,0.0,0.0
3604728,-0.009765632450580597,-0.024597184732556343,0.9701545238494873,0.24102801084518433,-0.07812502980232239,-0.5351564288139343,9.648441314697266,0.0,0.0,0.0
3609528,-0.009765632450580597,-0.024597184732556343,0.9701545238494873,0.24102801084518433,0.0,-0.5742189288139343,9.613285064697266,0.0,0.0,0.0
3614580,-0.009765632450580597,-0.024597184732556343,0.9701545238494873,0.24102801084518433,0.0,-0.5742189288139343,9.613285064697266,0.0,0.0,0.0
3620008,-0.009765632450580597,-0.024597184732556343,0.9701545238494873,0.24102801084518433,-0.039062514901161194,-0.5742189288139343,9.652347564697266,0.0,0.0,0.0
3625036,-0.009765632450580597,-0.024597184732556343,0.9701545238494873,0.24102801084518433,-0.039062514901161194,-0.5742189288139343,9.652347564697266,0.0,0.0,0.0
3630640,-0.009765632450580597,-0.024597184732556343,0.9701545238494873,0.24102801084518433,-0.11328128725290298,-0.4960939288139343,9.648441314697266,0.0,0.0,0.0
3636764,-0.009765632450580597,-0.024597184732556343,0.9701545238494873,0.24102801084518433,-0.11328128725290298,-0.4960939288139343,9.648441314697266,0.0,0.0,0.0
3641076,-0.009765632450580597,-0.024597184732556343,0.9701545238494873,0.24102801084518433,-0.07812502980232239,-0.5351564288139343,9.648441314697266,0.0,0.0,0.0
3646184,-0.009765632450580597,-0.024597184732556343,0.9701545238494873,0.24102801084518433,-0.07812502980232239,-0.5351564288139343,9.648441314697266,0.0,0.0,0.0
3650940,-0.009765632450580597,-0.024597184732556343,0.9701545238494873,0.24102801084518433,-0.039062514901161194,-0.5351564288139343,9.691410064697266,0.0,0.0,0.0
3656800,-0.009765632450580597,-0.024597184732556343,0.9701545238494873,0.24102801084518433,-0.039062514901161194,-0.5351564288139343,9.691410064697266,0.0,0.0,0.0
3661136,-0.009765632450580597,-0.024597184732556343,0.9701545238494873,0.24102801084518433,-0.039062514901161194,-0.4960939288139343,9.582035064697266,0.0,0.0,0.0
3666696,-0.009765632450580597,-0.024597184732556343,0.9701545238494873,0.24102801084518433,-0.039062514901161194,-0.4960939288139343,9.582035064697266,0.0,0.0,0.0
3673068,-0.009765632450580597,-0.024597184732556343,0.9701545238494873,0.24102801084518433,-0.07812502980232239,-0.5742189288139343,9.613285064697266,0.0,0.0,0.0
3678316,-0.009765632450580597,-0.024597184732556343,0.9701545238494873,0.24102801084518433,-0.039062514901161194,-0.5351564288139343,9.691410064697266,0.0,0.0,0.0
3683380,-0.009765632450580597,-0.024597184732556343,0.9701545238494873,0.24102801084518433,-0.039062514901161194,-0.5351564288139343,9.691410064697266,0.0,0.0,0.0
3688640,-0.009765632450580597,-0.024597184732556343,0.9701545238494873,0.24102801084518433,-0.039062514901161194,-0.4960939288139343,9.609378814697266,0.0,0.0,0.0
3693684,-0.009765632450580597,-0.024597184732556343,0.9701545238494873,0.24102801084518433,-0.039062514901161194,-0.4960939288139343,9.609378814697266,0.0,0.0,0.0
3699008,-0.009765632450580597,-0.024597184732556343,0.9701545238494873,0.24102801084518433,-0.039062514901161194,-0.5351564288139343,9.648441314697266,0.0,0.0,0.0
3704800,-0.009765632450580597,-0.024597184732556343,0.9701545238494873,0.24102801084518433,-0.039062514901161194,-0.5351564288139343,9.648441314697266,0.0,0.0,0.0
3709492,-0.009765632450580597,-0.024597184732556343,0.9701545238494873,0.24102801084518433,-0.039062514901161194,-0.4960939288139343,9.648441314697266,0.0,0.0,0.0
3715116,-0.009765632450580597,-0.024597184732556343,0.9701545238494873,0.24102801084518433,-0.039062514901161194,-0.4960939288139343,9.648441314697266,0.0,0.0,0.0
3719784,-0.009765632450580597,-0.024597184732556343,0.9701545238494873,0.24102801084518433,-0.11328128725290298,-0.4960939288139343,9.648441314697266,0.0,0.0,0.0
3725348,-0.009765632450580597,-0.024597184732556343,0.9701545238494873,0.24102801084518433,-0.11328128725290298,-0.4960939288139343,9.648441314697266,0.0,0.0,0.0
3730032,-0.009765632450580597,-0.024597184732556343,0.9701545238494873,0.24102801084518433,-0.07812502980232239,-0.4609376788139343,9.609378814697266,0.0,0.0,0.0
3735496,-0.009765632450580597,-0.024597184732556343,0.9701545238494873,0.24102801084518433,-0.07812502980232239,-0.4609376788139343,9.609378814697266,0.0,0.0,0.0
3739812,-0.009765632450580597,-0.024597184732556343,0.9701545238494873,0.24102801084518433,-0.039062514901161194,-0.5742189288139343,9.578128814697266,0.0,0.0,0.0
3745228,-0.009765632450580597,-0.024597184732556343,0.9701545238494873,0.24102801084518433,-0.039062514901161194,-0.5742189288139343,9.578128814697266,0.0,0.0,0.0
3749912,-0.009765632450580597,-0.024597184732556343,0.9701545238494873,0.24102801084518433,-0.039062514901161194,-0.4960939288139343,9.609378814697266,0.0,0.0,0.0
3755656,-0.009765632450580597,-0.024597184732556343,0.9701545238494873,0.24102801084518433,-0.039062514901161194,-0.4960939288139343,9.609378814697266,0.0,0.0,0.0
3760012,-0.009765632450580597,-0.024597184732556343,0.9701545238494873,0.24102801084518433,-0.11328128725290298,-0.4960939288139343,9.609378814697266,0.0,0.0,0.0
3765504,-0.009765632450580597,-0.024597184732556343,0.9701545238494873,0.24102801084518433,-0.11328128725290298,-0.4960939288139343,9.609378814697266,0.0,0.0,0.0
3772004,-0.009765632450580597,-0.024597184732556343,0.9701545238494873,0.24102801084518433,-0.039062514901161194,-0.5351564288139343,9.691410064697266,0.0,0.0,0.0
3777308,-0.009765632450580597,-0.024597184732556343,0.9701545238494873,0.24102801084518433,-0.07812502980232239,-0.4960939288139343,9.609378814697266,0.0,0.0,0.0
3781656,-0.009765632450580597,-0.024597184732556343,0.9701545238494873,0.24102801084518433,-0.07812502980232239,-0.4960939288139343,9.609378814697266,0.0,0.0,0.0
3786184,-0.009704596363008022,-0.024658219888806343,0.9701545238494873,0.24102801084518433,-0.07812502980232239,-0.4960939288139343,9.609378814697266,0.0,0.0,0.0
3791592,-0.009704596363008022,-0.024658219888806343,0.9701545238494873,0.24102801084518433,-0.039062514901161194,-0.5351564288139343,9.648441314697266,0.0,0.0,0.0
3796304,-0.009704596363008022,-0.024658219888806343,0.9701545238494873,0.24102801084518433,-0.039062514901161194,-0.4960939288139343,9.648441314697266,0.0,0.0,0.0
3802064,-0.009704596363008022,-0.024658219888806343,0.9701545238494873,0.24102801084518433,-0.039062514901161194,-0.4960939288139343,9.648441314697266,0.0,0.0,0.0
3807328,-0.009704596363008022,-0.024658219888806343,0.9701545238494873,0.24102801084518433,-0.039062514901161194,-0.4960939288139343,9.582035064697266,0.0,0.0,0.0
3812424,-0.009704596363008022,-0.024658219888806343,0.9701545238494873,0.24102801084518433,-0.039062514901161194,-0.4960939288139343,9.582035064697266,0.0,0.0,0.0
3817652,-0.009704596363008022,-0.024658219888806343,0.9701545238494873,0.24102801084518433,-0.039062514901161194,-0.4960939288139343,9.648441314697266,0.0,0.0,0.0
3822680,-0.009704596363008022,-0.024658219888806343,0.9701545238494873,0.24102801084518433,-0.039062514901161194,-0.4960939288139343,9.648441314697266,0.0,0.0,0.0
3828272,-0.009704596363008022,-0.024658219888806343,0.9701545238494873,0.24102801084518433,-0.039062514901161194,-0.4960939288139343,9.582035064697266,0.0,0.0,0.0
3833688,-0.009704596363008022,-0.024658219888806343,0.9701545238494873,0.24102801084518433,-0.039062514901161194,-0.4960939288139343,9.582035064697266,0.0,0.0,0.0
3838368,-0.009704596363008022,-0.024658219888806343,0.9701545238494873,0.24102801084518433,-0.07812502980232239,-0.4960939288139343,9.691410064697266,0.0,0.0,0.0
3843484,-0.009704596363008022,-0.024658219888806343,0.9701545238494873,0.24102801084518433,-0.07812502980232239,-0.4960939288139343,9.691410064697266,0.0,0.0,0.0
3848728,-0.009704596363008022,-0.024658219888806343,0.9701545238494873,0.24102801084518433,-0.039062514901161194,-0.5351564288139343,9.648441314697266,0.0,0.0,0.0
3854124,-0.009704596363008022,-0.024658219888806343,0.9701545238494873,0.24102801084518433,-0.039062514901161194,-0.5351564288139343,9.648441314697266,0.0,0.0,0.0
3858472,-0.009704596363008022,-0.024658219888806343,0.9701545238494873,0.24102801084518433,-0.039062514901161194,-0.4960939288139343,9.609378814697266,0.0,0.0,0.0
3864228,-0.009704596363008022,-0.024658219888806343,0.9701545238494873,0.24102801084518433,-0.039062514901161194,-0.4960939288139343,9.609378814697266,0.0,0.0,0.0
3870004,-0.009704596363008022,-0.024658219888806343,0.9701545238494873,0.24102801084518433,-0.039062514901161194,-0.5351564288139343,9.691410064697266,0.0,0.0,0.0
3875276,-0.009704596363008022,-0.024658219888806343,0.9701545238494873,0.24102801084518433,-0.039062514901161194,-0.5351564288139343,9.648441314697266,0.0,0.0,0.0
3880760,-0.009704596363008022,-0.024658219888806343,0.9701545238494873,0.24102801084518433,0.0,-0.4609376788139343,9.648441314697266,0.0,0.0,0.0
3885996,-0.009704596363008022,-0.024658219888806343,0.9701545238494873,0.24102801084518433,-0.039062514901161194,-0.4960939288139343,9.609378814697266,0.0,0.0,0.0
3891040,-0.009704596363008022,-0.024658219888806343,0.9701545238494873,0.24102801084518433,-0.039062514901161194,-0.4960939288139343,9.609378814697266,0.0,0.0,0.0
3896304,-0.009704596363008022,-0.024658219888806343,0.9701545238494873,0.24102801084518433,-0.039062514901161194,-0.4960939288139343,9.609378814697266,0.0,0.0,0.0
3901388,-0.009704596363008022,-0.024658219888806343,0.9701545238494873,0.24102801084518433,-0.039062514901161194,-0.4960939288139343,9.609378814697266,0.0,0.0,0.0
3906092,-0.009704596363008022,-0.024658219888806343,0.9701545238494873,0.24102801084518433,-0.11328128725290298,-0.4609376788139343,9.609378814697266,0.0,0.0,0.0
3911224,-0.009704596363008022,-0.024658219888806343,0.9701545238494873,0.24102801084518433,-0.11328128725290298,-0.4609376788139343,9.609378814697266,0.0,0.0,0.0
3916500,-0.009704596363008022,-0.024658219888806343,0.9701545238494873,0.24102801084518433,-0.07812502980232239,-0.5351564288139343,9.609378814697266,0.0,0.0,0.0
3922480,-0.009704596363008022,-0.024658219888806343,0.9701545238494873,0.24102801084518433,-0.07812502980232239,-0.5351564288139343,9.609378814697266,0.0,0.0,0.0
3927740,-0.009704596363008022,-0.024658219888806343,0.9701545238494873,0.24102801084518433,-0.11328128725290298,-0.4960939288139343,9.648441314697266,0.0,0.0,0.0
3933172,-0.009704596363008022,-0.024658219888806343,0.9701545238494873,0.24102801084518433,-0.11328128725290298,-0.4960939288139343,9.648441314697266,0.0,0.0,0.0
3937480,-0.009704596363008022,-0.024658219888806343,0.9701545238494873,0.24102801084518433,-0.07812502980232239,-0.5351564288139343,9.609378814697266,0.0,0.0,0.0
3942876,-0.009704596363008022,-0.024658219888806343,0.9701545238494873,0.24102801084518433,-0.07812502980232239,-0.5351564288139343,9.609378814697266,0.0,0.0,0.0
3947584,-0.009704596363008022,-0.024658219888806343,0.9701545238494873,0.24102801084518433,-0.039062514901161194,-0.4960939288139343,9.609378814697266,0.0,0.0,0.0
3953164,-0.009704596363008022,-0.024658219888806343,0.9701545238494873,0.24102801084518433,-0.039062514901161194,-0.4960939288139343,9.609378814697266,0.0,0.0,0.0
3957544,-0.009704596363008022,-0.024658219888806343,0.9701545238494873,0.24102801084518433,-0.07812502980232239,-0.4960939288139343,9.648441314697266,0.0,0.0,0.0
3963512,-0.009704596363008022,-0.024658219888806343,0.9701545238494873,0.24102801084518433,-0.07812502980232239,-0.4960939288139343,9.648441314697266,0.0,0.0,0.0
3969468,-0.009704596363008022,-0.024658219888806343,0.9701545238494873,0.24102801084518433,-0.039062514901161194,-0.4609376788139343,9.609378814697266,0.0,0.0,0.0
3974156,-0.009704596363008022,-0.024658219888806343,0.9701545238494873,0.24102801084518433,-0.07812502980232239,-0.4960939288139343,9.648441314697266,0.0,0.0,0.0
3979236,-0.009704596363008022,-0.024658219888806343,0.9701545238494873,0.24102801084518433,-0.07812502980232239,-0.4960939288139343,9.648441314697266,0.0,0.0,0.0
3983908,-0.009704596363008022,-0.024658219888806343,0.9701545238494873,0.24102801084518433,-0.039062514901161194,-0.4960939288139343,9.691410064697266,0.0,0.0,0.0
3989324,-0.009704596363008022,-0.024658219888806343,0.9701545238494873,0.24102801084518433,-0.039062514901161194,-0.5351564288139343,9.609378814697266,0.0,0.0,0.0
3994660,-0.009704596363008022,-0.024658219888806343,0.9701545238494873,0.24102801084518433,-0.039062514901161194,-0.5351564288139343,9.691410064697266,0.0,0.0,0.0
3999740,-0.009704596363008022,-0.024658219888806343,0.9701545238494873,0.24102801084518433,-0.039062514901161194,-0.5351564288139343,9.691410064697266,0.0,0.0,0.0
4004424,-0.009704596363008022,-0.024658219888806343,0.9701545238494873,0.24102801084518433,-0.039062514901161194,-0.5351564288139343,9.582035064697266,0.0,0.0,0.0
4009456,-0.009704596363008022,-0.024658219888806343,0.9701545238494873,0.24102801084518433,-0.039062514901161194,-0.5351564288139343,9.582035064697266,0.0,0.0,0.0
4015080,-0.009704596363008022,-0.024658219888806343,0.9701545238494873,0.24102801084518433,-0.07812502980232239,-0.4960939288139343,9.648441314697266,0.0,0.0,0.0
4020144,-0.009704596363008022,-0.024658219888806343,0.9701545238494873,0.24102801084518433,-0.07812502980232239,-0.4960939288139343,9.648441314697266,0.0,0.0,0.0
4025408,-0.009704596363008022,-0.024658219888806343,0.9701545238494873,0.24102801084518433,-0.039062514901161194,-0.4960939288139343,9.609378814697266,0.0,0.0,0.0
4031344,-0.009704596363008022,-0.024658219888806343,0.9701545238494873,0.24102801084518433,-0.039062514901161194,-0.4960939288139343,9.609378814697266,0.0,0.0,0.0
4035672,-0.009704596363008022,-0.024658219888806343,0.9701545238494873,0.24102801084518433,-0.039062514901161194,-0.4960939288139343,9.609378814697266,0.0,0.0,0.0
4040696,-0.009704596363008022,-0.024658219888806343,0.9701545238494873,0.24102801084518433,-0.039062514901161194,-0.4960939288139343,9.609378814697266,0.0,0.0,0.0
4045396,-0.009704596363008022,-0.024658219888806343,0.9701545238494873,0.24102801084518433,-0.07812502980232239,-0.4960939288139343,9.609378814697266,0.0,0.0,0.0
4050812,-0.009704596363008022,-0.024658219888806343,0.9701545238494873,0.24102801084518433,-0.07812502980232239,-0.4960939288139343,9.609378814697266,0.0,0.0,0.0
4055488,-0.009704596363008022,-0.024658219888806343,0.9701545238494873,0.24102801084518433,-0.039062514901161194,-0.4960939288139343,9.609378814697266,0.0,0.0,0.0
4060548,-0.009704596363008022,-0.024658219888806343,0.9701545238494873,0.24102801084518433,-0.039062514901161194,-0.4960939288139343,9.609378814697266,0.0,0.0,0.0
4065844,-0.009704596363008022,-0.024658219888806343,0.9701545238494873,0.24102801084518433,-0.039062514901161194,-0.4960939288139343,9.691410064697266,0.0,0.0,0.0
4071296,-0.009704596363008022,-0.024658219888806343,0.9701545238494873,0.24102801084518433,-0.039062514901161194,-0.4960939288139343,9.691410064697266,0.0,0.0,0.0
4075980,-0.009704596363008022,-0.024658219888806343,0.9701545238494873,0.24102801084518433,-0.07812502980232239,-0.4960939288139343,9.609378814697266,0.0,0.0,0.0
4081064,-0.009704596363008022,-0.024658219888806343,0.9701545238494873,0.24102801084518433,-0.07812502980232239,-0.4960939288139343,9.609378814697266,0.0,0.0,0.0
4085868,-0.009704596363008022,-0.024658219888806343,0.9701545238494873,0.24102801084518433,-0.039062514901161194,-0.4960939288139343,9.609378814697266,0.0,0.0,0.0
4091276,-0.009704596363008022,-0.024658219888806343,0.9701545238494873,0.24102801084518433,-0.039062514901161194,-0.4960939288139343,9.609378814697266,0.0,0.0,0.0
4096556,-0.009704596363008022,-0.024658219888806343,0.9701545238494873,0.24102801084518433,-0.039062514901161194,-0.4960939288139343,9.609378814697266,0.0,0.0,0.0
4101592,-0.009521490894258022,-0.024719255045056343,0.9701545238494873,0.24102801084518433,-0.039062514901161194,-0.4960939288139343,9.609378814697266,0.0,0.0,0.0
4107052,-0.009521490894258022,-0.024719255045056343,0.9701545238494873,0.24102801084518433,-0.039062514901161194,-0.4960939288139343,9.609378814697266,0.0,0.0,0.0
4111728,-0.009521490894258022,-0.024719255045056343,0.9701545238494873,0.24102801084518433,-0.07812502980232239,-0.4960939288139343,9.648441314697266,0.0,0.0,0.0
4116044,-0.009521490894258022,-0.024719255045056343,0.9701545238494873,0.24102801084518433,-0.039062514901161194,-0.5351564288139343,9.582035064697266,0.0,0.0,0.0
4121480,-0.009521490894258022,-0.024719255045056343,0.9701545238494873,0.24102801084518433,-0.039062514901161194,-0.5351564288139343,9.582035064697266,0.0,0.0,0.0
4127392,-0.009521490894258022,-0.024719255045056343,0.9701545238494873,0.24102801084518433,-0.039062514901161194,-0.5351564288139343,9.648441314697266,0.0,0.0,0.0
4132800,-0.009521490894258022,-0.024719255045056343,0.9701545238494873,0.24102801084518433,-0.039062514901161194,-0.5351564288139343,9.648441314697266,0.0,0.0,0.0
4137836,-0.009521490894258022,-0.024719255045056343,0.9701545238494873,0.24102801084518433,-0.039062514901161194,-0.5351564288139343,9.648441314697266,0.0,0.0,0.0
4142508,-0.009521490894258022,-0.024719255045056343,0.9701545238494873,0.24102801084518433,-0.07812502980232239,-0.4960939288139343,9.609378814697266,0.0,0.0,0.0
4147912,-0.009521490894258022,-0.024719255045056343,0.9701545238494873,0.24102801084518433,-0.07812502980232239,-0.5351564288139343,9.691410064697266,0.0,0.0,0.0
4153168,-0.009521490894258022,-0.024719255045056343,0.9701545238494873,0.24102801084518433,0.0,-0.5351564288139343,9.691410064697266,0.0,0.0,0.0
4158832,-0.009521490894258022,-0.024719255045056343,0.9701545238494873,0.24102801084518433,0.0,-0.5351564288139343,9.691410064697266,0.0,0.0,0.0
4164500,-0.009521490894258022,-0.024719255045056343,0.9701545238494873,0.24102801084518433,-0.039062514901161194,-0.4960939288139343,9.582035064697266,0.0,0.0,0.0
4169908,-0.009521490894258022,-0.024719255045056343,0.9701545238494873,0.24102801084518433,-0.039062514901161194,-0.4960939288139343,9.582035064697266,0.0,0.0,0.0
4174592,-0.009521490894258022,-0.024719255045056343,0.9701545238494873,0.24102801084518433,-0.039062514901161194,-0.4609376788139343,9.609378814697266,0.0,0.0,0.0
4180016,-0.009521490894258022,-0.024719255045056343,0.9701545238494873,0.24102801084518433,-0.039062514901161194,-0.4609376788139343,9.609378814697266,0.0,0.0,0.0
4184728,-0.009521490894258022,-0.024719255045056343,0.9701545238494873,0.24102801084518433,-0.039062514901161194,-0.4609376788139343,9.609378814697266,0.0,0.0,0.0
4190284,-0.009521490894258022,-0.024719255045056343,0.9701545238494873,0.24102801084518433,-0.039062514901161194,-0.4609376788139343,9.609378814697266,0.0,0.0,0.0
4196048,-0.009521490894258022,-0.024719255045056343,0.9701545238494873,0.24102801084518433,-0.039062514901161194,-0.4960939288139343,9.648441314697266,0.0,0.0,0.0
4200380,-0.009521490894258022,-0.024719255045056343,0.9701545238494873,0.24102801084518433,-0.07812502980232239,-0.5351564288139343,9.609378814697266,0.0,0.0,0.0
4205980,-0.009521490894258022,-0.024719255045056343,0.9701545238494873,0.24102801084518433,0.0,-0.4960939288139343,9.648441314697266,0.0,0.0,0.0
4210656,-0.009521490894258022,-0.024719255045056343,0.9701545238494873,0.24102801084518433,-0.039062514901161194,-0.4960939288139343,9.648441314697266,0.0,0.0,0.0
4216068,-0.009521490894258022,-0.024719255045056343,0.9701545238494873,0.24102801084518433,-0.07812502980232239,-0.4960939288139343,9.648441314697266,0.0,0.0,0.0
4220768,-0.009521490894258022,-0.024719255045056343,0.9701545238494873,0.24102801084518433,-0.07812502980232239,-0.4609376788139343,9.609378814697266,0.0,0.0,0.0
4226552,-0.009521490894258022,-0.024719255045056343,0.9701545238494873,0.24102801084518433,-0.039062514901161194,-0.4960939288139343,9.609378814697266,0.0,0.0,0.0
4231828,-0.009521490894258022,-0.024719255045056343,0.9701545238494873,0.24102801084518433,-0.039062514901161194,-0.4960939288139343,9.648441314697266,0.0,0.0,0.0
4236856,-0.009521490894258022,-0.024719255045056343,0.9701545238494873,0.24102801084518433,-0.039062514901161194,-0.4960939288139343,9.648441314697266,0.0,0.0,0.0
4241548,-0.009521490894258022,-0.024719255045056343,0.9701545238494873,0.24102801084518433,-0.039062514901161194,-0.4960939288139343,9.609378814697266,0.0,0.0,0.0
4246936,-0.009521490894258022,-0.024719255045056343,0.9701545238494873,0.24102801084518433,-0.07812502980232239,-0.5351564288139343,9.648441314697266,0.0,0.0,0.0
4252252,-0.009521490894258022,-0.024719255045056343,0.9701545238494873,0.24102801084518433,-0.039062514901161194,-0.4960939288139343,9.609378814697266,0.0,0.0,0.0
4257632,-0.009521490894258022,-0.024719255045056343,0.9701545238494873,0.24102801084518433,-0.039062514901161194,-0.4960939288139343,9.609378814697266,0.0,0.0,0.0
4262928,-0.009521490894258022,-0.024719255045056343,0.9701545238494873,0.24102801084518433,-0.039062514901161194,-0.5351564288139343,9.582035064697266,0.0,0.0,0.0
4268716,-0.009521490894258022,-0.024719255045056343,0.9701545238494873,0.24102801084518433,-0.039062514901161194,-0.5351564288139343,9.582035064697266,0.0,0.0,0.0
4273424,-0.009521490894258022,-0.024719255045056343,0.9701545238494873,0.24102801084518433,-0.039062514901161194,-0.5351564288139343,9.609378814697266,0.0,0.0,0.0
4278468,-0.009521490894258022,-0.024719255045056343,0.9701545238494873,0.24102801084518433,-0.039062514901161194,-0.5351564288139343,9.609378814697266,0.0,0.0,0.0
4282780,-0.009521490894258022,-0.024719255045056343,0.9701545238494873,0.24102801084518433,-0.07812502980232239,-0.5351564288139343,9.609378814697266,0.0,0.0,0.0
4288256,-0.009521490894258022,-0.024719255045056343,0.9701545238494873,0.24102801084518433,-0.07812502980232239,-0.5351564288139343,9.609378814697266,0.0,0.0,0.0
4292944,-0.009521490894258022,-0.024719255045056343,0.9701545238494873,0.24102801084518433,-0.07812502980232239,-0.4960939288139343,9.609378814697266,0.0,0.0,0.0
4297996,-0.009521490894258022,-0.024719255045056343,0.9701545238494873,0.24102801084518433,-0.07812502980232239,-0.4960939288139343,9.609378814697266,0.0,0.0,0.0
4302692,-0.009521490894258022,-0.024719255045056343,0.9701545238494873,0.24102801084518433,-0.039062514901161194,-0.4960939288139343,9.648441314697266,0.0,0.0,0.0
4309032,-0.009521490894258022,-0.024719255045056343,0.9701545238494873,0.24102801084518433,-0.039062514901161194,-0.4960939288139343,9.648441314697266,0.0,0.0,0.0
4313724,-0.009521490894258022,-0.024719255045056343,0.9701545238494873,0.24102801084518433,-0.07812502980232239,-0.5351564288139343,9.609378814697266,0.0,0.0,0.0
4318772,-0.009521490894258022,-0.024719255045056343,0.9701545238494873,0.24102801084518433,-0.07812502980232239,-0.5351564288139343,9.609378814697266,0.0,0.0,0.0
4324036,-0.009521490894258022,-0.024719255045056343,0.9701545238494873,0.24102801084518433,-0.039062514901161194,-0.5351564288139343,9.609378814697266,0.0,0.0,0.0
4329096,-0.009399420581758022,-0.024780292063951492,0.9701545238494873,0.24102801084518433,-0.039062514901161194,-0.5351564288139343,9.609378814697266,0.0,0.0,0.0
4333500,-0.009399420581758022,-0.024780292063951492,0.9701545238494873,0.24102801084518433,-0.07812502980232239,-0.4960939288139343,9.648441314697266,0.0,0.0,0.0
4338556,-0.009399420581758022,-0.024780292063951492,0.9701545238494873,0.24102801084518433,-0.07812502980232239,-0.4960939288139343,9.648441314697266,0.0,0.0,0.0
4343244,-0.009399420581758022,-0.024780292063951492,0.9701545238494873,0.24102801084518433,-0.07812502980232239,-0.5351564288139343,9.609378814697266,0.0,0.0,0.0
4348704,-0.009399420581758022,-0.024780292063951492,0.9701545238494873,0.24102801084518433,-0.07812502980232239,-0.5351564288139343,9.609378814697266,0.0,0.0,0.0
4353728,-0.009399420581758022,-0.024780292063951492,0.9701545238494873,0.24102801084518433,-0.039062514901161194,-0.4960939288139343,9.648441314697266,0.0,0.0,0.0
4359628,-0.009399420581758022,-0.024780292063951492,0.9701545238494873,0.24102801084518433,-0.039062514901161194,-0.4960939288139343,9.648441314697266,0.0,0.0,0.0
4365456,-0.009399420581758022,-0.024780292063951492,0.9701545238494873,0.24102801084518433,-0.039062514901161194,-0.5351564288139343,9.648441314697266,0.0,0.0,0.0
4371140,-0.009399420581758022,-0.024780292063951492,0.9701545238494873,0.24102801084518433,-0.07812502980232239,-0.4960939288139343,9.648441314697266,0.0,0.0,0.0
4376176,-0.009399420581758022,-0.024780292063951492,0.9701545238494873,0.24102801084518433,-0.07812502980232239,-0.4960939288139343,9.648441314697266,0.0,0.0,0.0
4380864,-0.009399420581758022,-0.024780292063951492,0.9701545238494873,0.24102801084518433,-0.07812502980232239,-0.4960939288139343,9.582035064697266,0.0,0.0,0.0
4385932,-0.009399420581758022,-0.024780292063951492,0.9701545238494873,0.24102801084518433,-0.07812502980232239,-0.4960939288139343,9.582035064697266,0.0,0.0,0.0
4391176,-0.009399420581758022,-0.024780292063951492,0.9701545238494873,0.24102801084518433,-0.07812502980232239,-0.5351564288139343,9.648441314697266,0.0,0.0,0.0
4396656,-0.009399420581758022,-0.024780292063951492,0.9701545238494873,0.24102801084518433,-0.07812502980232239,-0.5351564288139343,9.648441314697266,0.0,0.0,0.0
4401332,-0.009399420581758022,-0.024780292063951492,0.9701545238494873,0.24102801084518433,-0.07812502980232239,-0.5351564288139343,9.582035064697266,0.0,0.0,0.0
4406772,-0.009399420581758022,-0.024780292063951492,0.9701545238494873,0.24102801084518433,-0.07812502980232239,-0.5351564288139343,9.582035064697266,0.0,0.0,0.0
4411484,-0.009399420581758022,-0.024780292063951492,0.9701545238494873,0.24102801084518433,-0.039062514901161194,-0.4960939288139343,9.648441314697266,0.0,0.0,0.0
4417028,-0.009399420581758022,-0.024780292063951492,0.9701545238494873,0.24102801084518433,-0.039062514901161194,-0.4960939288139343,9.648441314697266,0.0,0.0,0.0
4421704,-0.009399420581758022,-0.024780292063951492,0.9701545238494873,0.24102801084518433,-0.07812502980232239,-0.4960939288139343,9.691410064697266,0.0,0.0,0.0
4427104,-0.009399420581758022,-0.024780292063951492,0.9701545238494873,0.24102801084518433,-0.07812502980232239,-0.4960939288139343,9.691410064697266,0.0,0.0,0.0
4431448,-0.009399420581758022,-0.024780292063951492,0.9701545238494873,0.24102801084518433,-0.07812502980232239,-0.4960939288139343,9.648441314697266,0.0,0.0,0.0
4436852,-0.009399420581758022,-0.024780292063951492,0.9701545238494873,0.24102801084518433,-0.07812502980232239,-0.4960939288139343,9.648441314697266,0.0,0.0,0.0
4442140,-0.009399420581758022,-0.024780292063951492,0.9701545238494873,0.24102801084518433,-0.07812502980232239,-0.4960939288139343,9.648441314697266,0.0,0.0,0.0
4447900,-0.009399420581758022,-0.024841327220201492,0.9701545238494873,0.24102801084518433,-0.07812502980232239,-0.4960939288139343,9.648441314697266,0.0,0.0,0.0
4452304,-0.009399420581758022,-0.024841327220201492,0.9701545238494873,0.24102801084518433,-0.07812502980232239,-0.4960939288139343,9.648441314697266,0.0,0.0,0.0
4457352,-0.009399420581758022,-0.024841327220201492,0.9701545238494873,0.24102801084518433,-0.07812502980232239,-0.4960939288139343,9.648441314697266,0.0,0.0,0.0
4463460,-0.009399420581758022,-0.024841327220201492,0.9701545238494873,0.24102801084518433,-0.039062514901161194,-0.4960939288139343,9.609378814697266,0.0,0.0,0.0
4468844,-0.009399420581758022,-0.024841327220201492,0.9701545238494873,0.24102801084518433,-0.039062514901161194,-0.4960939288139343,9.648441314697266,0.0,0.0,0.0
4474436,-0.009399420581758022,-0.024841327220201492,0.9701545238494873,0.24102801084518433,-0.039062514901161194,-0.4960939288139343,9.609378814697266,0.0,0.0,0.0
4479152,-0.009399420581758022,-0.024841327220201492,0.9701545238494873,0.24102801084518433,-0.07812502980232239,-0.5351564288139343,9.648441314697266,0.0,0.0,0.0
4484208,-0.009399420581758022,-0.024841327220201492,0.9701545238494873,0.24102801084518433,-0.07812502980232239,-0.5351564288139343,9.648441314697266,0.0,0.0,0.0
4489604,-0.009399420581758022,-0.024841327220201492,0.9701545238494873,0.24102801084518433,-0.039062514901161194,-0.4609376788139343,9.609378814697266,0.0,0.0,0.0
4494664,-0.009399420581758022,-0.024841327220201492,0.9701545238494873,0.24102801084518433,-0.039062514901161194,-0.4609376788139343,9.609378814697266,0.0,0.0,0.0
4499908,-0.009399420581758022,-0.024841327220201492,0.9701545238494873,0.24102801084518433,-0.039062514901161194,-0.4960939288139343,9.648441314697266,0.0,0.0,0.0
4506420,-0.009399420581758022,-0.024841327220201492,0.9701545238494873,0.24102801084518433,-0.039062514901161194,-0.4960939288139343,9.648441314697266,0.0,0.0,0.0
4511084,-0.009399420581758022,-0.024841327220201492,0.9701545238494873,0.24102801084518433,-0.039062514901161194,-0.4960939288139343,9.648441314697266,0.0,0.0,0.0
4516132,-0.009399420581758022,-0.024841327220201492,0.9701545238494873,0.24102801084518433,-0.039062514901161194,-0.4960939288139343,9.648441314697266,0.0,0.0,0.0
4520812,-0.009399420581758022,-0.024841327220201492,0.9701545238494873,0.24102801084518433,-0.07812502980232239,-0.4960939288139343,9.648441314697266,0.0,0.0,0.0
4525912,-0.009399420581758022,-0.024841327220201492,0.9701545238494873,0.24102801084518433,-0.07812502980232239,-0.4960939288139343,9.648441314697266,0.0,0.0,0.0
4530232,-0.009399420581758022,-0.024841327220201492,0.9701545238494873,0.24102801084518433,-0.039062514901161194,-0.4960939288139343,9.648441314697266,0.0,0.0,0.0
4535988,-0.009399420581758022,-0.024841327220201492,0.9701545238494873,0.24102801084518433,-0.039062514901161194,-0.4960939288139343,9.648441314697266,0.001953126396983862,-0.001953126396983862,-0.001953126396983862
4541820,-0.009399420581758022,-0.024841327220201492,0.9701545238494873,0.24102801084518433,-0.07812502980232239,-0.5351564288139343,9.609378814697266,0.001953126396983862,-0.001953126396983862,-0.001953126396983862
4547116,-0.009399420581758022,-0.024841327220201492,0.9701545238494873,0.24102801084518433,-0.039062514901161194,-0.5351564288139343,9.648441314697266,0.001953126396983862,-0.001953126396983862,-0.001953126396983862
4552188,-0.009399420581758022,-0.024841327220201492,0.9701545238494873,0.24102801084518433,-0.039062514901161194,-0.5351564288139343,9.648441314697266,-0.001953126396983862,0.001953126396983862,0.0
4556976,-0.009399420581758022,-0.024841327220201492,0.9701545238494873,0.24102801084518433,-0.039062514901161194,-0.4609376788139343,9.609378814697266,-0.001953126396983862,0.001953126396983862,0.0
4562396,-0.009399420581758022,-0.024841327220201492,0.9701545238494873,0.24102801084518433,-0.039062514901161194,-0.5351564288139343,9.648441314697266,-0.001953126396983862,0.001953126396983862,0.0
4568052,-0.009399420581758022,-0.024841327220201492,0.9701545238494873,0.24102801084518433,-0.039062514901161194,-0.5351564288139343,9.609378814697266,-0.001953126396983862,0.001953126396983862,0.0
4573284,-0.009399420581758022,-0.024841327220201492,0.9701545238494873,0.24102801084518433,-0.039062514901161194,-0.5351564288139343,9.609378814697266,-0.003906252793967724,0.001953126396983862,-0.001953126396983862
4577988,-0.009399420581758022,-0.024841327220201492,0.9701545238494873,0.24102801084518433,-0.039062514901161194,-0.6132814884185791,9.582035064697266,-0.003906252793967724,0.001953126396983862,-0.001953126396983862
4583060,-0.009399420581758022,-0.024841327220201492,0.9701545238494873,0.24102801084518433,-0.039062514901161194,-0.6132814884185791,9.582035064697266,-0.001953126396983862,0.001953126396983862,0.0
4588504,-0.009399420581758022,-0.024841327220201492,0.9701545238494873,0.24102801084518433,-0.039062514901161194,-0.5351564288139343,9.609378814697266,-0.001953126396983862,0.001953126396983862,0.0
4593568,-0.009399420581758022,-0.024841327220201492,0.9701545238494873,0.24102801084518433,-0.039062514901161194,-0.5351564288139343,9.609378814697266,0.0,0.001953126396983862,0.0
4598240,-0.009399420581758022,-0.024841327220201492,0.9701545238494873,0.24102801084518433,-0.039062514901161194,-0.4960939288139343,9.648441314697266,0.0,0.001953126396983862,0.0
4604484,-0.009399420581758022,-0.024841327220201492,0.9701545238494873,0.24102801084518433,-0.039062514901161194,-0.4960939288139343,9.648441314697266,0.001953126396983862,0.0,-0.001953126396983862
4609204,-0.009399420581758022,-0.024841327220201492,0.9701545238494873,0.24102801084518433,-0.07812502980232239,-0.4960939288139343,9.648441314697266,0.001953126396983862,0.0,-0.001953126396983862
4614280,-0.009399420581758022,-0.024841327220201492,0.9701545238494873,0.24102801084518433,-0.07812502980232239,-0.4960939288139343,9.648441314697266,0.001953126396983862,0.001953126396983862,0.001953126396983862
4619540,-0.009399420581758022,-0.024841327220201492,0.9701545238494873,0.24102801084518433,-0.07812502980232239,-0.5351564288139343,9.691410064697266,0.001953126396983862,0.001953126396983862,0.001953126396983862
4625092,-0.009399420581758022,-0.024841327220201492,0.9701545238494873,0.24102801084518433,-0.07812502980232239,-0.5351564288139343,9.691410064697266,0.0,-0.003906252793967724,-0.001953126396983862
4629436,-0.009399420581758022,-0.024841327220201492,0.9701545238494873,0.24102801084518433,-0.039062514901161194,-0.4960939288139343,9.648441314697266,0.0,-0.003906252793967724,-0.001953126396983862
4635160,-0.009399420581758022,-0.024841327220201492,0.9701545238494873,0.24102801084518433,-0.039062514901161194,-0.4960939288139343,9.648441314697266,0.001953126396983862,0.0,0.0
4641576,-0.009399420581758022,-0.024841327220201492,0.9701545238494873,0.24102801084518433,-0.11328128725290298,-0.4609376788139343,9.609378814697266,0.001953126396983862,0.0,0.0
4646828,-0.009399420581758022,-0.024841327220201492,0.9701545238494873,0.24102801084518433,-0.07812502980232239,-0.4960939288139343,9.609378814697266,0.001953126396983862,0.0,0.0
4651904,-0.009399420581758022,-0.024841327220201492,0.9701545238494873,0.24102801084518433,-0.07812502980232239,-0.4960939288139343,9.609378814697266,0.003906252793967724,-0.001953126396983862,-0.001953126396983862
4657560,-0.009399420581758022,-0.024841327220201492,0.9701545238494873,0.24102801084518433,-0.07812502980232239,-0.5351564288139343,9.648441314697266,0.003906252793967724,-0.001953126396983862,-0.001953126396983862
4663208,-0.009399420581758022,-0.024841327220201492,0.9701545238494873,0.24102801084518433,-0.07812502980232239,-0.5351564288139343,9.648441314697266,0.0,0.0,0.0
4667888,-0.009399420581758022,-0.024841327220201492,0.9701545238494873,0.24102801084518433,-0.039062514901161194,-0.5351564288139343,9.648441314697266,0.0,0.0,0.0
4673652,-0.009399420581758022,-0.024841327220201492,0.9701545238494873,0.24102801084518433,-0.039062514901161194,-0.5351564288139343,9.648441314697266,0.0,0.0,-0.001953126396983862
4678340,-0.009399420581758022,-0.024841327220201492,0.9701545238494873,0.24102801084518433,-0.039062514901161194,-0.4960939288139343,9.609378814697266,0.0,0.0,-0.001953126396983862
4683768,-0.009399420581758022,-0.024841327220201492,0.9701545238494873,0.24102801084518433,-0.039062514901161194,-0.4960939288139343,9.609378814697266,-0.001953126396983862,0.001953126396983862,-0.001953126396983862
4688688,-0.009399420581758022,-0.024841327220201492,0.9701545238494873,0.24102801084518433,-0.039062514901161194,-0.4960939288139343,9.648441314697266,-0.001953126396983862,0.001953126396983862,-0.001953126396983862
4694288,-0.009399420581758022,-0.024841327220201492,0.9701545238494873,0.24102801084518433,-0.039062514901161194,-0.4960939288139343,9.648441314697266,0.0,-0.001953126396983862,0.0
4699892,-0.009399420581758022,-0.024841327220201492,0.9701545238494873,0.24102801084518433,-0.039062514901161194,-0.5351564288139343,9.609378814697266,0.0,-0.001953126396983862,0.0
4705660,-0.009277350269258022,-0.024902362376451492,0.9701545238494873,0.24108904600143433,-0.039062514901161194,-0.5351564288139343,9.609378814697266,0.0,-0.001953126396983862,0.0
4710764,-0.009277350269258022,-0.024902362376451492,0.9701545238494873,0.24108904600143433,-0.039062514901161194,-0.5351564288139343,9.609378814697266,0.001953126396983862,0.0,-0.001953126396983862
4715472,-0.009277350269258022,-0.024902362376451492,0.9701545238494873,0.24108904600143433,-0.039062514901161194,-0.4960939288139343,9.609378814697266,0.001953126396983862,0.0,-0.001953126396983862
4720660,-0.009277350269258022,-0.024902362376451492,0.9701545238494873,0.24108904600143433,-0.039062514901161194,-0.4960939288139343,9.609378814697266,0.001953126396983862,0.0,0.0
4725992,-0.009277350269258022,-0.024902362376451492,0.9701545238494873,0.24108904600143433,-0.039062514901161194,-0.4960939288139343,9.648441314697266,0.001953126396983862,0.0,0.0
4731024,-0.009277350269258022,-0.024902362376451492,0.9701545238494873,0.24108904600143433,-0.039062514901161194,-0.4960939288139343,9.648441314697266,0.0,-0.001953126396983862,0.0
4736468,-0.009277350269258022,-0.024902362376451492,0.9701545238494873,0.24108904600143433,-0.039062514901161194,-0.5351564288139343,9.609378814697266,0.0,-0.001953126396983862,0.0
4742464,-0.009277350269258022,-0.024902362376451492,0.9701545238494873,0.24108904600143433,-0.039062514901161194,-0.5351564288139343,9.609378814697266,0.0,0.0,0.0
4747148,-0.009277350269258022,-0.024902362376451492,0.9701545238494873,0.24108904600143433,-0.039062514901161194,-0.5351564288139343,9.691410064697266,0.0,0.0,0.0
4752192,-0.009277350269258022,-0.024902362376451492,0.9701545238494873,0.24108904600143433,-0.039062514901161194,-0.5351564288139343,9.691410064697266,0.001953126396983862,-0.001953126396983862,0.0
4756880,-0.009277350269258022,-0.024902362376451492,0.9701545238494873,0.24108904600143433,-0.039062514901161194,-0.5351564288139343,9.582035064697266,0.001953126396983862,-0.001953126396983862,0.0
4762308,-0.009277350269258022,-0.024902362376451492,0.9701545238494873,0.24108904600143433,-0.039062514901161194,-0.5351564288139343,9.582035064697266,0.001953126396983862,-0.001953126396983862,0.0
4767016,-0.009277350269258022,-0.024902362376451492,0.9701545238494873,0.24108904600143433,-0.039062514901161194,-0.5351564288139343,9.609378814697266,0.001953126396983862,-0.001953126396983862,0.0
4772288,-0.009277350269258022,-0.024902362376451492,0.9701545238494873,0.24108904600143433,-0.039062514901161194,-0.5351564288139343,9.609378814697266,0.0,0.0,0.0
4776980,-0.009277350269258022,-0.024902362376451492,0.9701545238494873,0.24108904600143433,-0.039062514901161194,-0.5742189288139343,9.613285064697266,0.0,0.0,0.0
4782012,-0.009277350269258022,-0.024902362376451492,0.9701545238494873,0.24108904600143433,-0.039062514901161194,-0.5742189288139343,9.613285064697266,0.001953126396983862,0.001953126396983862,0.0
4786708,-0.009277350269258022,-0.024902362376451492,0.9701545238494873,0.24108904600143433,-0.039062514901161194,-0.4960939288139343,9.648441314697266,0.001953126396983862,0.001953126396983862,0.0
4792212,-0.009277350269258022,-0.024902362376451492,0.9701545238494873,0.24108904600143433,-0.039062514901161194,-0.4960939288139343,9.648441314697266,-0.005859379190951586,0.0,-0.001953126396983862
4797604,-0.009277350269258022,-0.024902362376451492,0.9701545238494873,0.24108904600143433,-0.07812502980232239,-0.4960939288139343,9.542972564697266,-0.005859379190951586,0.0,-0.001953126396983862
4803372,-0.009277350269258022,-0.024902362376451492,0.9701545238494873,0.24108904600143433,-0.07812502980232239,-0.4960939288139343,9.542972564697266,-0.001953126396983862,0.0,-0.001953126396983862
4807812,-0.009277350269258022,-0.024902362376451492,0.9701545238494873,0.24108904600143433,-0.039062514901161194,-0.4960939288139343,9.609378814697266,-0.001953126396983862,0.0,-0.001953126396983862
4813216,-0.009277350269258022,-0.024902362376451492,0.9701545238494873,0.24108904600143433,-0.039062514901161194,-0.4960939288139343,9.609378814697266,0.003906252793967724,-0.001953126396983862,0.0
4818488,-0.009277350269258022,-0.024902362376451492,0.9701545238494873,0.24108904600143433,-0.07812502980232239,-0.5742189288139343,9.578128814697266,0.003906252793967724,-0.001953126396983862,0.0
4824268,-0.009216315113008022,-0.024902362376451492,0.9701545238494873,0.24108904600143433,-0.07812502980232239,-0.5742189288139343,9.578128814697266,0.003906252793967724,-0.001953126396983862,0.0
4829348,-0.009216315113008022,-0.024902362376451492,0.9701545238494873,0.24108904600143433,-0.07812502980232239,-0.5742189288139343,9.578128814697266,0.009765632450580597,0.001953126396983862,0.001953126396983862
4834640,-0.009216315113008022,-0.024902362376451492,0.9701545238494873,0.24108904600143433,-0.039062514901161194,-0.4609376788139343,9.609378814697266,0.009765632450580597,0.001953126396983862,0.001953126396983862
4841112,-0.009216315113008022,-0.024902362376451492,0.9701545238494873,0.24108904600143433,-0.039062514901161194,-0.5351564288139343,9.582035064697266,0.009765632450580597,0.001953126396983862,0.001953126396983862
4845824,-0.009216315113008022,-0.024902362376451492,0.9701545238494873,0.24108904600143433,-0.039062514901161194,-0.5742189288139343,9.613285064697266,0.009765632450580597,0.001953126396983862,0.001953126396983862
4851860,-0.009216315113008022,-0.024902362376451492,0.9701545238494873,0.24108904600143433,-0.039062514901161194,-0.5742189288139343,9.613285064697266,0.0,0.001953126396983862,0.0
4856616,-0.009216315113008022,-0.024902362376451492,0.9701545238494873,0.24108904600143433,-0.07812502980232239,-0.4609376788139343,9.648441314697266,0.0,0.001953126396983862,0.0
4862064,-0.009216315113008022,-0.024902362376451492,0.9701545238494873,0.24108904600143433,-0.07812502980232239,-0.4609376788139343,9.648441314697266,0.005859379190951586,0.0,-0.001953126396983862
4866820,-0.009216315113008022,-0.024902362376451492,0.9701545238494873,0.24108904600143433,-0.07812502980232239,-0.5742189288139343,9.539066314697266,0.005859379190951586,0.0,-0.001953126396983862
4871868,-0.009216315113008022,-0.024902362376451492,0.9701545238494873,0.24108904600143433,-0.07812502980232239,-0.5742189288139343,9.539066314697266,-0.009765632450580597,-0.001953126396983862,0.0
4876580,-0.009216315113008022,-0.024902362376451492,0.9701545238494873,0.24108904600143433,-0.039062514901161194,-0.4960939288139343,9.691410064697266,-0.009765632450580597,-0.001953126396983862,0.0
4882012,-0.009216315113008022,-0.024902362376451492,0.9701545238494873,0.24108904600143433,-0.039062514901161194,-0.4960939288139343,9.691410064697266,0.005859379190951586,0.001953126396983862,-0.001953126396983862
4887812,-0.009216315113008022,-0.024902362376451492,0.9701545238494873,0.24108904600143433,-0.039062514901161194,-0.4960939288139343,9.609378814697266,0.005859379190951586,0.001953126396983862,-0.001953126396983862
4893088,-0.009216315113008022,-0.024902362376451492,0.9701545238494873,0.24108904600143433,-0.07812502980232239,-0.5351564288139343,9.503910064697266,0.005859379190951586,0.001953126396983862,-0.001953126396983862
4898868,-0.009216315113008022,-0.024902362376451492,0.9701545238494873,0.24108904600143433,-0.07812502980232239,-0.5351564288139343,9.648441314697266,0.005859379190951586,0.001953126396983862,-0.001953126396983862
4904220,-0.009216315113008022,-0.024902362376451492,0.9701545238494873,0.24108904600143433,-0.039062514901161194,-0.5351564288139343,9.765628814697266,0.005859379190951586,0.001953126396983862,-0.001953126396983862
4909364,-0.009216315113008022,-0.024902362376451492,0.9701545238494873,0.24108904600143433,-0.039062514901161194,-0.5351564288139343,9.765628814697266,0.003906252793967724,0.001953126396983862,-0.001953126396983862
4914676,-0.009216315113008022,-0.024902362376451492,0.9701545238494873,0.24108904600143433,-0.039062514901161194,-0.4960939288139343,9.542972564697266,0.003906252793967724,0.001953126396983862,-0.001953126396983862
4920244,-0.009216315113008022,-0.024902362376451492,0.9701545238494873,0.24108904600143433,-0.039062514901161194,-0.4960939288139343,9.542972564697266,-0.011718758381903172,-0.001953126396983862,-0.001953126396983862
4924956,-0.009216315113008022,-0.024902362376451492,0.9701545238494873,0.24108904600143433,-0.039062514901161194,-0.5351564288139343,9.648441314697266,-0.011718758381903172,-0.001953126396983862,-0.001953126396983862
4930096,-0.009216315113008022,-0.024902362376451492,0.9701545238494873,0.24108904600143433,-0.039062514901161194,-0.5351564288139343,9.648441314697266,0.005859379190951586,0.001953126396983862,0.001953126396983862
4935380,-0.009216315113008022,-0.024902362376451492,0.9701545238494873,0.24108904600143433,-0.039062514901161194,-0.4609376788139343,9.648441314697266,0.005859379190951586,0.001953126396983862,0.001953126396983862
4941160,-0.009216315113008022,-0.024902362376451492,0.9701545238494873,0.24108904600143433,-0.039062514901161194,-0.4609376788139343,9.648441314697266,0.003906252793967724,-0.001953126396983862,0.001953126396983862
4945512,-0.009216315113008022,-0.024902362376451492,0.9701545238494873,0.24108904600143433,-0.039062514901161194,-0.5742189288139343,9.539066314697266,0.003906252793967724,-0.001953126396983862,0.001953126396983862
4951348,-0.009216315113008022,-0.024902362376451492,0.9701545238494873,0.24108904600143433,-0.039062514901161194,-0.5742189288139343,9.539066314697266,-0.009765632450580597,0.0,0.001953126396983862
4956048,-0.009216315113008022,-0.024902362376451492,0.9701545238494873,0.24108904600143433,-0.039062514901161194,-0.4960939288139343,9.648441314697266,-0.009765632450580597,0.0,0.001953126396983862
4961480,-0.009216315113008022,-0.024902362376451492,0.9701545238494873,0.24108904600143433,-0.039062514901161194,-0.4960939288139343,9.648441314697266,0.003906252793967724,-0.001953126396983862,0.0
4965936,-0.009216315113008022,-0.024902362376451492,0.9701545238494873,0.24108904600143433,-0.07812502980232239,-0.4960939288139343,9.582035064697266,0.003906252793967724,-0.001953126396983862,0.0
4971004,-0.009216315113008022,-0.024902362376451492,0.9701545238494873,0.24108904600143433,-0.07812502980232239,-0.4960939288139343,9.582035064697266,-0.003906252793967724,0.0,0.0
4977432,-0.009216315113008022,-0.024902362376451492,0.9701545238494873,0.24108904600143433,-0.07812502980232239,-0.4960939288139343,9.609378814697266,-0.003906252793967724,0.0,0.0
4982172,-0.009216315113008022,-0.024902362376451492,0.9701545238494873,0.24108904600143433,-0.039062514901161194,-0.4960939288139343,9.691410064697266,-0.003906252793967724,0.0,0.0
4987792,-0.009216315113008022,-0.024902362376451492,0.9701545238494873,0.24108904600143433,-0.039062514901161194,-0.4960939288139343,9.691410064697266,0.003906252793967724,0.0,-0.001953126396983862
4993060,-0.009216315113008022,-0.024902362376451492,0.9701545238494873,0.24108904600143433,-0.07812502980232239,-0.4960939288139343,9.609378814697266,0.003906252793967724,0.0,-0.001953126396983862
4998108,-0.009216315113008022,-0.024902362376451492,0.9701545238494873,0.24108904600143433,-0.07812502980232239,-0.4960939288139343,9.609378814697266,-0.001953126396983862,0.0,0.0
5003424,-0.009216315113008022,-0.024902362376451492,0.9701545238494873,0.24108904600143433,-0.039062514901161194,-0.5742189288139343,9.613285064697266,-0.001953126396983862,0.0,0.0
5008688,-0.009216315113008022,-0.024902362376451492,0.9701545238494873,0.24108904600143433,-0.039062514901161194,-0.5742189288139343,9.613285064697266,0.001953126396983862,0.001953126396983862,0.001953126396983862
5013976,-0.009216315113008022,-0.024902362376451492,0.9701545238494873,0.24108904600143433,-0.07812502980232239,-0.5351564288139343,9.609378814697266,0.001953126396983862,0.001953126396983862,0.001953126396983862
5019068,-0.009216315113008022,-0.024902362376451492,0.9701545238494873,0.24108904600143433,-0.07812502980232239,-0.5351564288139343,9.609378814697266,0.001953126396983862,-0.003906252793967724,0.0
5023764,-0.009216315113008022,-0.024902362376451492,0.9701545238494873,0.24108904600143433,-0.07812502980232239,-0.5742189288139343,9.652347564697266,0.001953126396983862,-0.003906252793967724,0.0
5028920,-0.009216315113008022,-0.024902362376451492,0.9701545238494873,0.24108904600143433,-0.07812502980232239,-0.5742189288139343,9.652347564697266,0.0,0.001953126396983862,-0.001953126396983862
5034224,-0.009216315113008022,-0.024902362376451492,0.9701545238494873,0.24108904600143433,-0.039062514901161194,-0.4960939288139343,9.609378814697266,0.0,0.001953126396983862,-0.001953126396983862
5039632,-0.009216315113008022,-0.024902362376451492,0.9701545238494873,0.24108904600143433,-0.039062514901161194,-0.4960939288139343,9.609378814697266,0.0,0.0,0.001953126396983862
5044352,-0.009216315113008022,-0.024902362376451492,0.9701545238494873,0.24108904600143433,-0.07812502980232239,-0.5351564288139343,9.691410064697266,0.0,0.0,0.001953126396983862
5049820,-0.009216315113008022,-0.024902362376451492,0.9701545238494873,0.24108904600143433,-0.07812502980232239,-0.5351564288139343,9.691410064697266,0.0,0.0,0.001953126396983862
5054536,-0.009216315113008022,-0.024902362376451492,0.9701545238494873,0.24108904600143433,-0.039062514901161194,-0.4609376788139343,9.609378814697266,0.0,0.0,0.001953126396983862
5060304,-0.009216315113008022,-0.024902362376451492,0.9701545238494873,0.24108904600143433,-0.039062514901161194,-0.4609376788139343,9.609378814697266,0.001953126396983862,0.0,-0.001953126396983862
5065828,-0.009216315113008022,-0.024902362376451492,0.9701545238494873,0.24108904600143433,-0.07812502980232239,-0.5351564288139343,9.582035064697266,0.001953126396983862,0.0,-0.001953126396983862
5070160,-0.009216315113008022,-0.024902362376451492,0.9701545238494873,0.24108904600143433,-0.039062514901161194,-0.4609376788139343,9.648441314697266,0.001953126396983862,0.0,-0.001953126396983862
5075000,-0.009216315113008022,-0.024902362376451492,0.9701545238494873,0.24108904600143433,-0.039062514901161194,-0.4609376788139343,9.730472564697266,0.001953126396983862,0.0,-0.001953126396983862
5080448,-0.009216315113008022,-0.024902362376451492,0.9701545238494873,0.24108904600143433,-0.039062514901161194,-0.4609376788139343,9.730472564697266,0.001953126396983862,0.0,-0.001953126396983862
5085160,-0.009216315113008022,-0.024902362376451492,0.9701545238494873,0.24108904600143433,-0.039062514901161194,-0.5351564288139343,9.648441314697266,0.001953126396983862,0.0,-0.001953126396983862
5090200,-0.009216315113008022,-0.024841327220201492,0.9701545238494873,0.24108904600143433,-0.039062514901161194,-0.5351564288139343,9.648441314697266,0.001953126396983862,0.0,-0.001953126396983862
5095996,-0.009216315113008022,-0.024841327220201492,0.9701545238494873,0.24108904600143433,-0.07812502980232239,-0.5351564288139343,9.582035064697266,0.001953126396983862,0.0,-0.001953126396983862
5100804,-0.009216315113008022,-0.024841327220201492,0.9701545238494873,0.24108904600143433,-0.039062514901161194,-0.4609376788139343,9.648441314697266,0.001953126396983862,0.0,-0.001953126396983862
5105868,-0.009216315113008022,-0.024841327220201492,0.9701545238494873,0.24108904600143433,-0.039062514901161194,-0.4609376788139343,9.648441314697266,0.0,0.0,0.001953126396983862
5111224,-0.009216315113008022,-0.024841327220201492,0.9701545238494873,0.24108904600143433,-0.039062514901161194,-0.4960939288139343,9.609378814697266,0.0,0.0,0.001953126396983862
5117336,-0.009216315113008022,-0.024841327220201492,0.9701545238494873,0.24108904600143433,-0.07812502980232239,-0.5742189288139343,9.578128814697266,0.0,0.0,0.001953126396983862
5122032,-0.009216315113008022,-0.024841327220201492,0.9701545238494873,0.24108904600143433,-0.07812502980232239,-0.5351564288139343,9.582035064697266,0.0,0.0,0.001953126396983862
5127304,-0.009216315113008022,-0.024841327220201492,0.9701545238494873,0.24108904600143433,-0.07812502980232239,-0.5351564288139343,9.582035064697266,-0.001953126396983862,0.001953126396983862,0.001953126396983862
5132576,-0.009216315113008022,-0.024841327220201492,0.9701545238494873,0.24108904600143433,-0.11328128725290298,-0.4960939288139343,9.648441314697266,-0.001953126396983862,0.001953126396983862,0.001953126396983862
5137656,-0.009216315113008022,-0.024841327220201492,0.9701545238494873,0.24108904600143433,-0.11328128725290298,-0.4960939288139343,9.648441314697266,0.0,0.0,0.0
5142928,-0.009216315113008022,-0.024841327220201492,0.9701545238494873,0.24108904600143433,0.0,-0.4960939288139343,9.542972564697266,0.0,0.0,0.0
5147992,-0.009216315113008022,-0.024841327220201492,0.9701545238494873,0.24108904600143433,0.0,-0.4960939288139343,9.542972564697266,-0.005859379190951586,0.0,0.0
5152688,-0.009216315113008022,-0.024841327220201492,0.9701545238494873,0.24108904600143433,-0.07812502980232239,-0.5351564288139343,9.648441314697266,-0.005859379190951586,0.0,0.0
5157756,-0.009216315113008022,-0.024841327220201492,0.9701545238494873,0.24108904600143433,-0.07812502980232239,-0.5351564288139343,9.648441314697266,0.001953126396983862,0.001953126396983862,0.0
5162472,-0.009216315113008022,-0.024841327220201492,0.9701545238494873,0.24108904600143433,-0.039062514901161194,-0.5351564288139343,9.648441314697266,0.001953126396983862,0.001953126396983862,0.0
5167772,-0.009216315113008022,-0.024841327220201492,0.9701545238494873,0.24108904600143433,-0.039062514901161194,-0.5351564288139343,9.648441314697266,0.0,-0.003906252793967724,0.0
5172468,-0.009216315113008022,-0.024841327220201492,0.9701545238494873,0.24108904600143433,-0.039062514901161194,-0.5351564288139343,9.582035064697266,0.0,-0.003906252793967724,0.0
5177892,-0.009216315113008022,-0.024841327220201492,0.9701545238494873,0.24108904600143433,-0.039062514901161194,-0.5351564288139343,9.582035064697266,0.003906252793967724,0.003906252793967724,0.0
5182752,-0.009216315113008022,-0.024841327220201492,0.9701545238494873,0.24108904600143433,0.0,-0.4609376788139343,9.691410064697266,0.003906252793967724,0.003906252793967724,0.0
5187832,-0.009216315113008022,-0.024841327220201492,0.9701545238494873,0.24108904600143433,0.0,-0.4609376788139343,9.691410064697266,0.001953126396983862,0.003906252793967724,0.001953126396983862
5193156,-0.009216315113008022,-0.024841327220201492,0.9701545238494873,0.24108904600143433,-0.039062514901161194,-0.5351564288139343,9.582035064697266,0.001953126396983862,0.003906252793967724,0.001953126396983862
5198976,-0.009216315113008022,-0.024841327220201492,0.9701545238494873,0.24108904600143433,-0.039062514901161194,-0.5351564288139343,9.582035064697266,-0.003906252793967724,0.0,-0.001953126396983862
5203328,-0.009216315113008022,-0.024841327220201492,0.9701545238494873,0.24108904600143433,-0.039062514901161194,-0.4960939288139343,9.691410064697266,-0.003906252793967724,0.0,-0.001953126396983862
5208744,-0.009216315113008022,-0.024841327220201492,0.9701545238494873,0.24108904600143433,-0.039062514901161194,-0.4960939288139343,9.691410064697266,0.0,0.0,0.0
5213444,-0.009216315113008022,-0.024841327220201492,0.9701545238494873,0.24108904600143433,-0.039062514901161194,-0.4960939288139343,9.648441314697266,0.0,0.0,0.0
5219288,-0.009216315113008022,-0.024841327220201492,0.9701545238494873,0.24108904600143433,-0.039062514901161194,-0.4960939288139343,9.648441314697266,-0.001953126396983862,0.001953126396983862,0.0
5224460,-0.009216315113008022,-0.024841327220201492,0.9701545238494873,0.24108904600143433,-0.039062514901161194,-0.4960939288139343,9.648441314697266,-0.003906252793967724,0.001953126396983862,0.0
5229872,-0.009216315113008022,-0.024841327220201492,0.9701545238494873,0.24108904600143433,-0.039062514901161194,-0.5351564288139343,9.691410064697266,-0.003906252793967724,0.001953126396983862,0.0
5236440,-0.009216315113008022,-0.024841327220201492,0.9701545238494873,0.24108904600143433,-0.07812502980232239,-0.5351564288139343,9.648441314697266,-0.003906252793967724,0.001953126396983862,0.0
5241144,-0.009216315113008022,-0.024841327220201492,0.9701545238494873,0.24108904600143433,-0.039062514901161194,-0.5351564288139343,9.609378814697266,-0.003906252793967724,0.001953126396983862,0.0
5246320,-0.009216315113008022,-0.024841327220201492,0.9701545238494873,0.24108904600143433,-0.039062514901161194,-0.5351564288139343,9.609378814697266,-0.003906252793967724,0.0,0.0
5250996,-0.009216315113008022,-0.024841327220201492,0.9701545238494873,0.24108904600143433,-0.07812502980232239,-0.5742189288139343,9.652347564697266,-0.003906252793967724,0.0,0.0
5256164,-0.009216315113008022,-0.024841327220201492,0.9701545238494873,0.24108904600143433,-0.07812502980232239,-0.5742189288139343,9.652347564697266,0.001953126396983862,0.001953126396983862,0.0
5260864,-0.009216315113008022,-0.024841327220201492,0.9701545238494873,0.24108904600143433,-0.039062514901161194,-0.4960939288139343,9.609378814697266,0.001953126396983862,0.001953126396983862,0.0
5266496,-0.009216315113008022,-0.024841327220201492,0.9701545238494873,0.24108904600143433,-0.039062514901161194,-0.4960939288139343,9.609378814697266,-0.001953126396983862,0.0,0.0
5271176,-0.009216315113008022,-0.024841327220201492,0.9701545238494873,0.24108904600143433,-0.039062514901161194,-0.4960939288139343,9.609378814697266,-0.001953126396983862,0.0,0.0
5276392,-0.009216315113008022,-0.024841327220201492,0.9701545238494873,0.24108904600143433,-0.039062514901161194,-0.4960939288139343,9.609378814697266,0.001953126396983862,0.001953126396983862,-0.001953126396983862
5281680,-0.009216315113008022,-0.024841327220201492,0.9701545238494873,0.24108904600143433,-0.039062514901161194,-0.4960939288139343,9.691410064697266,0.001953126396983862,0.001953126396983862,-0.001953126396983862
5286848,-0.009216315113008022,-0.024841327220201492,0.9701545238494873,0.24108904600143433,-0.039062514901161194,-0.4960939288139343,9.691410064697266,0.003906252793967724,0.0,0.0
5292140,-0.009216315113008022,-0.024841327220201492,0.9701545238494873,0.24108904600143433,-0.07812502980232239,-0.5351564288139343,9.582035064697266,0.003906252793967724,0.0,0.0
5297536,-0.009216315113008022,-0.024841327220201492,0.9701545238494873,0.24108904600143433,-0.07812502980232239,-0.5351564288139343,9.582035064697266,-0.001953126396983862,-0.001953126396983862,0.0
5301944,-0.009216315113008022,-0.024841327220201492,0.9701545238494873,0.24108904600143433,-0.11328128725290298,-0.4960939288139343,9.691410064697266,-0.001953126396983862,-0.001953126396983862,0.0
5307020,-0.009216315113008022,-0.024841327220201492,0.9701545238494873,0.24108904600143433,-0.11328128725290298,-0.4960939288139343,9.691410064697266,-0.001953126396983862,0.001953126396983862,0.001953126396983862
5313552,-0.009216315113008022,-0.024841327220201492,0.9701545238494873,0.24108904600143433,-0.039062514901161194,-0.4960939288139343,9.609378814697266,-0.001953126396983862,0.001953126396983862,0.001953126396983862
5318912,-0.009216315113008022,-0.024841327220201492,0.9701545238494873,0.24108904600143433,-0.11328128725290298,-0.4960939288139343,9.582035064697266,-0.001953126396983862,0.001953126396983862,0.001953126396983862
5324000,-0.009216315113008022,-0.024841327220201492,0.9701545238494873,0.24108904600143433,-0.11328128725290298,-0.4960939288139343,9.582035064697266,-0.001953126396983862,0.0,0.001953126396983862
5329764,-0.009216315113008022,-0.024841327220201492,0.9701545238494873,0.24108904600143433,-0.039062514901161194,-0.4960939288139343,9.609378814697266,-0.001953126396983862,0.0,0.001953126396983862
5334816,-0.009216315113008022,-0.024841327220201492,0.9701545238494873,0.24108904600143433,-0.039062514901161194,-0.4960939288139343,9.609378814697266,0.001953126396983862,0.0,0.0
5340180,-0.009216315113008022,-0.024841327220201492,0.9701545238494873,0.24108904600143433,-0.039062514901161194,-0.4960939288139343,9.609378814697266,0.001953126396983862,0.0,0.0
5345576,-0.009216315113008022,-0.024841327220201492,0.9701545238494873,0.24108904600143433,-0.039062514901161194,-0.4960939288139343,9.609378814697266,-0.003906252793967724,0.001953126396983862,0.001953126396983862
5350276,-0.009216315113008022,-0.024841327220201492,0.9701545238494873,0.24108904600143433,-0.07812502980232239,-0.5351564288139343,9.609378814697266,-0.003906252793967724,0.001953126396983862,0.001953126396983862
5355396,-0.009216315113008022,-0.024841327220201492,0.9701545238494873,0.24108904600143433,-0.07812502980232239,-0.5351564288139343,9.609378814697266,0.0,0.0,0.001953126396983862
5360104,-0.009216315113008022,-0.024841327220201492,0.9701545238494873,0.24108904600143433,-0.11328128725290298,-0.4960939288139343,9.648441314697266,0.0,0.0,0.001953126396983862
5365280,-0.009216315113008022,-0.024841327220201492,0.9701545238494873,0.24108904600143433,-0.11328128725290298,-0.4960939288139343,9.648441314697266,0.001953126396983862,0.001953126396983862,0.001953126396983862
5369992,-0.009216315113008022,-0.024841327220201492,0.9701545238494873,0.24108904600143433,-0.07812502980232239,-0.5351564288139343,9.609378814697266,0.001953126396983862,0.001953126396983862,0.001953126396983862
5375032,-0.009216315113008022,-0.024841327220201492,0.9701545238494873,0.24108904600143433,-0.07812502980232239,-0.5351564288139343,9.609378814697266,-0.003906252793967724,-0.001953126396983862,0.0
5380284,-0.009216315113008022,-0.024841327220201492,0.9701545238494873,0.24108904600143433,-0.039062514901161194,-0.5351564288139343,9.648441314697266,-0.003906252793967724,-0.001953126396983862,0.0
5385384,-0.009216315113008022,-0.024841327220201492,0.9701545238494873,0.24108904600143433,-0.039062514901161194,-0.5351564288139343,9.648441314697266,0.0,0.001953126396983862,0.001953126396983862
5390656,-0.009216315113008022,-0.024841327220201492,0.9701545238494873,0.24108904600143433,-0.07812502980232239,-0.4960939288139343,9.582035064697266,0.0,0.001953126396983862,0.001953126396983862
5396456,-0.009216315113008022,-0.024841327220201492,0.9701545238494873,0.24108904600143433,-0.07812502980232239,-0.4960939288139343,9.582035064697266,0.0,0.001953126396983862,0.0
5400796,-0.009216315113008022,-0.024841327220201492,0.9701545238494873,0.24108904600143433,-0.07812502980232239,-0.4960939288139343,9.609378814697266,0.0,0.001953126396983862,0.0
5406228,-0.009216315113008022,-0.024841327220201492,0.9701545238494873,0.24108904600143433,-0.07812502980232239,-0.4960939288139343,9.609378814697266,-0.001953126396983862,-0.003906252793967724,-0.001953126396983862
5411040,-0.009216315113008022,-0.024841327220201492,0.9701545238494873,0.24108904600143433,-0.07812502980232239,-0.4960939288139343,9.648441314697266,-0.001953126396983862,-0.003906252793967724,-0.001953126396983862
5416956,-0.009216315113008022,-0.024841327220201492,0.9701545238494873,0.24108904600143433,-0.07812502980232239,-0.4960939288139343,9.648441314697266,0.007812505587935448,-0.003906252793967724,-0.003906252793967724
5422124,-0.009216315113008022,-0.024841327220201492,0.9701545238494873,0.24108904600143433,-0.07812502980232239,-0.4960939288139343,9.648441314697266,-0.001953126396983862,0.0,-0.001953126396983862
5427476,-0.009216315113008022,-0.024841327220201492,0.9701545238494873,0.24108904600143433,-0.039062514901161194,-0.4960939288139343,9.609378814697266,-0.001953126396983862,0.0,-0.001953126396983862
5433296,-0.009216315113008022,-0.024841327220201492,0.9701545238494873,0.24108904600143433,-0.039062514901161194,-0.4960939288139343,9.609378814697266,-0.001953126396983862,0.0,-0.001953126396983862
5438576,-0.009216315113008022,-0.024841327220201492,0.9701545238494873,0.24108904600143433,-0.039062514901161194,-0.4960939288139343,9.648441314697266,-0.001953126396983862,0.0,-0.001953126396983862
5443652,-0.009216315113008022,-0.024841327220201492,0.9701545238494873,0.24108904600143433,-0.039062514901161194,-0.4960939288139343,9.648441314697266,0.001953126396983862,0.001953126396983862,-0.001953126396983862
5448928,-0.009216315113008022,-0.024841327220201492,0.9701545238494873,0.24108904600143433,-0.07812502980232239,-0.4960939288139343,9.609378814697266,0.001953126396983862,0.001953126396983862,-0.001953126396983862
5454356,-0.009216315113008022,-0.024841327220201492,0.9701545238494873,0.24108904600143433,-0.07812502980232239,-0.4960939288139343,9.609378814697266,0.0,0.001953126396983862,0.0
5459060,-0.009216315113008022,-0.024841327220201492,0.9701545238494873,0.24108904600143433,-0.07812502980232239,-0.5351564288139343,9.648441314697266,0.0,0.001953126396983862,0.0
5464244,-0.009216315113008022,-0.024841327220201492,0.9701545238494873,0.24108904600143433,-0.07812502980232239,-0.5351564288139343,9.648441314697266,0.005859379190951586,0.001953126396983862,0.0
5468920,-0.009216315113008022,-0.024841327220201492,0.9701545238494873,0.24108904600143433,-0.039062514901161194,-0.4960939288139343,9.609378814697266,0.005859379190951586,0.001953126396983862,0.0
5474392,-0.009216315113008022,-0.024841327220201492,0.9701545238494873,0.24108904600143433,-0.039062514901161194,-0.4960939288139343,9.609378814697266,0.0,0.0,0.001953126396983862
5479232,-0.009216315113008022,-0.024841327220201492,0.9701545238494873,0.24108904600143433,-0.07812502980232239,-0.5351564288139343,9.648441314697266,0.0,0.0,0.001953126396983862
5484304,-0.009216315113008022,-0.024841327220201492,0.9701545238494873,0.24108904600143433,-0.07812502980232239,-0.5351564288139343,9.648441314697266,0.001953126396983862,-0.001953126396983862,-0.003906252793967724
5489636,-0.009216315113008022,-0.024841327220201492,0.9701545238494873,0.24108904600143433,-0.039062514901161194,-0.4960939288139343,9.609378814697266,0.001953126396983862,-0.001953126396983862,-0.003906252793967724
5495064,-0.009216315113008022,-0.024841327220201492,0.9701545238494873,0.24108904600143433,-0.039062514901161194,-0.4960939288139343,9.609378814697266,0.0,0.0,0.0
5499412,-0.009216315113008022,-0.024841327220201492,0.9701545238494873,0.24108904600143433,-0.07812502980232239,-0.5351564288139343,9.609378814697266,0.0,0.0,0.0
5504820,-0.009216315113008022,-0.024841327220201492,0.9701545238494873,0.24108904600143433,-0.07812502980232239,-0.5351564288139343,9.609378814697266,0.0,0.0,0.0
5509504,-0.009216315113008022,-0.024841327220201492,0.9701545238494873,0.24108904600143433,-0.07812502980232239,-0.4609376788139343,9.648441314697266,0.0,0.0,0.0
5514916,-0.009216315113008022,-0.024841327220201492,0.9701545238494873,0.24108904600143433,-0.07812502980232239,-0.4609376788139343,9.648441314697266,0.001953126396983862,-0.001953126396983862,-0.001953126396983862
5519792,-0.009216315113008022,-0.024841327220201492,0.9701545238494873,0.24108904600143433,-0.039062514901161194,-0.5351564288139343,9.648441314697266,0.001953126396983862,-0.001953126396983862,-0.001953126396983862
5525604,-0.009216315113008022,-0.024841327220201492,0.9701545238494873,0.24108904600143433,-0.039062514901161194,-0.5351564288139343,9.648441314697266,0.001953126396983862,-0.003906252793967724,0.0
5531468,-0.009216315113008022,-0.024841327220201492,0.9701545238494873,0.24108904600143433,-0.07812502980232239,-0.5351564288139343,9.691410064697266,0.001953126396983862,-0.003906252793967724,0.0
5536748,-0.009216315113008022,-0.024841327220201492,0.9701545238494873,0.24108904600143433,-0.11328128725290298,-0.4960939288139343,9.648441314697266,0.001953126396983862,-0.003906252793967724,0.0
5541904,-0.009216315113008022,-0.024841327220201492,0.9701545238494873,0.24108904600143433,-0.11328128725290298,-0.4960939288139343,9.648441314697266,0.0,0.001953126396983862,0.001953126396983862
5546604,-0.009216315113008022,-0.024841327220201492,0.9701545238494873,0.24108904600143433,-0.039062514901161194,-0.5351564288139343,9.582035064697266,0.0,0.001953126396983862,0.001953126396983862
5551716,-0.009216315113008022,-0.024841327220201492,0.9701545238494873,0.24108904600143433,-0.039062514901161194,-0.5351564288139343,9.582035064697266,-0.001953126396983862,0.001953126396983862,0.001953126396983862
5557032,-0.009216315113008022,-0.024841327220201492,0.9701545238494873,0.24108904600143433,0.0,-0.4960939288139343,9.609378814697266,-0.001953126396983862,0.001953126396983862,0.001953126396983862
5562664,-0.009216315113008022,-0.024841327220201492,0.9701545238494873,0.24108904600143433,0.0,-0.4960939288139343,9.609378814697266,0.0,0.0,-0.001953126396983862
5567352,-0.009216315113008022,-0.024841327220201492,0.9701545238494873,0.24108904600143433,-0.07812502980232239,-0.4609376788139343,9.609378814697266,0.0,0.0,-0.001953126396983862
5572544,-0.009216315113008022,-0.024841327220201492,0.9701545238494873,0.24108904600143433,-0.07812502980232239,-0.4609376788139343,9.609378814697266,0.0,0.0,-0.001953126396983862
5577804,-0.009216315113008022,-0.024841327220201492,0.9701545238494873,0.24108904600143433,-0.039062514901161194,-0.5351564288139343,9.609378814697266,0.0,0.0,-0.001953126396983862
5582860,-0.009216315113008022,-0.024841327220201492,0.9701545238494873,0.24108904600143433,-0.039062514901161194,-0.5351564288139343,9.609378814697266,-0.001953126396983862,0.001953126396983862,0.0
5588156,-0.009216315113008022,-0.024841327220201492,0.9701545238494873,0.24108904600143433,-0.039062514901161194,-0.4960939288139343,9.648441314697266,-0.001953126396983862,0.001953126396983862,0.0
5593580,-0.009216315113008022,-0.024841327220201492,0.9701545238494873,0.24108904600143433,-0.039062514901161194,-0.4960939288139343,9.648441314697266,0.0,-0.001953126396983862,0.0
5597924,-0.009216315113008022,-0.024841327220201492,0.9701545238494873,0.24108904600143433,-0.039062514901161194,-0.4960939288139343,9.609378814697266,0.0,-0.001953126396983862,0.0
5603556,-0.009216315113008022,-0.024841327220201492,0.9701545238494873,0.24108904600143433,-0.039062514901161194,-0.4960939288139343,9.609378814697266,-0.001953126396983862,0.0,0.0
5608272,-0.009216315113008022,-0.024841327220201492,0.9701545238494873,0.24108904600143433,0.0,-0.5351564288139343,9.609378814697266,-0.001953126396983862,0.0,0.0
5613668,-0.009216315113008022,-0.024841327220201492,0.9701545238494873,0.24108904600143433,0.0,-0.5351564288139343,9.609378814697266,0.0,0.003906252793967724,-0.001953126396983862
5618644,-0.009216315113008022,-0.024841327220201492,0.9701545238494873,0.24108904600143433,-0.039062514901161194,-0.4960939288139343,9.582035064697266,0.0,0.003906252793967724,-0.001953126396983862
5624488,-0.009216315113008022,-0.024841327220201492,0.9701545238494873,0.24108904600143433,-0.039062514901161194,-0.4960939288139343,9.582035064697266,-0.003906252793967724,0.0,-0.001953126396983862
5630332,-0.009216315113008022,-0.024841327220201492,0.9701545238494873,0.24108904600143433,-0.039062514901161194,-0.4960939288139343,9.648441314697266,-0.003906252793967724,0.0,-0.001953126396983862
5635984,-0.009216315113008022,-0.024841327220201492,0.9701545238494873,0.24108904600143433,-0.039062514901161194,-0.4960939288139343,9.582035064697266,-0.003906252793967724,0.0,-0.001953126396983862
5641064,-0.009216315113008022,-0.024841327220201492,0.9701545238494873,0.24108904600143433,-0.039062514901161194,-0.4960939288139343,9.582035064697266,0.001953126396983862,-0.003906252793967724,0.0
5645756,-0.009216315113008022,-0.024841327220201492,0.9701545238494873,0.24108904600143433,-0.07812502980232239,-0.4960939288139343,9.609378814697266,0.001953126396983862,-0.003906252793967724,0.0
5650836,-0.009216315113008022,-0.024841327220201492,0.9701545238494873,0.24108904600143433,-0.07812502980232239,-0.4960939288139343,9.609378814697266,0.0,0.0,0.0
5656104,-0.009216315113008022,-0.024841327220201492,0.9701545238494873,0.24108904600143433,0.0,-0.4609376788139343,9.648441314697266,0.0,0.0,0.0
5661528,-0.009216315113008022,-0.024841327220201492,0.9701545238494873,0.24108904600143433,0.0,-0.4609376788139343,9.648441314697266,0.0,0.0,0.0
5666212,-0.009216315113008022,-0.024841327220201492,0.9701545238494873,0.24108904600143433,-0.07812502980232239,-0.4960939288139343,9.582035064697266,0.0,0.0,0.0
5671680,-0.009216315113008022,-0.024841327220201492,0.9701545238494873,0.24108904600143433,-0.07812502980232239,-0.4960939288139343,9.582035064697266,0.001953126396983862,-0.003906252793967724,-0.001953126396983862
5676376,-0.009216315113008022,-0.024841327220201492,0.9701545238494873,0.24108904600143433,-0.039062514901161194,-0.5351564288139343,9.609378814697266,0.001953126396983862,-0.003906252793967724,-0.001953126396983862
5682332,-0.009216315113008022,-0.024841327220201492,0.9701545238494873,0.24108904600143433,-0.039062514901161194,-0.5351564288139343,9.609378814697266,-0.001953126396983862,0.001953126396983862,0.0
5686656,-0.009216315113008022,-0.024841327220201492,0.9701545238494873,0.24108904600143433,-0.07812502980232239,-0.5351564288139343,9.609378814697266,-0.001953126396983862,0.001953126396983862,0.0
5692524,-0.009216315113008022,-0.024841327220201492,0.9701545238494873,0.24108904600143433,-0.07812502980232239,-0.5351564288139343,9.609378814697266,-0.001953126396983862,0.001953126396983862,0.0
5696860,-0.009216315113008022,-0.024841327220201492,0.9701545238494873,0.24108904600143433,-0.07812502980232239,-0.4960939288139343,9.582035064697266,-0.001953126396983862,0.001953126396983862,0.0
5702008,-0.009216315113008022,-0.024841327220201492,0.9701545238494873,0.24108904600143433,-0.07812502980232239,-0.4960939288139343,9.582035064697266,-0.003906252793967724,0.001953126396983862,0.0
5706700,-0.009216315113008022,-0.024841327220201492,0.9701545238494873,0.24108904600143433,-0.07812502980232239,-0.4960939288139343,9.609378814697266,-0.003906252793967724,0.001953126396983862,0.0
5712248,-0.009216315113008022,-0.024841327220201492,0.9701545238494873,0.24108904600143433,-0.07812502980232239,-0.4960939288139343,9.609378814697266,0.003906252793967724,0.001953126396983862,0.0
5716988,-0.009216315113008022,-0.024841327220201492,0.9701545238494873,0.24108904600143433,-0.039062514901161194,-0.4960939288139343,9.609378814697266,0.003906252793967724,0.001953126396983862,0.0
5723308,-0.009216315113008022,-0.024841327220201492,0.9701545238494873,0.24108904600143433,-0.039062514901161194,-0.4960939288139343,9.609378814697266,0.005859379190951586,-0.001953126396983862,0.0
5728764,-0.009216315113008022,-0.024841327220201492,0.9701545238494873,0.24108904600143433,-0.039062514901161194,-0.5351564288139343,9.582035064697266,0.005859379190951586,-0.001953126396983862,0.0
5734028,-0.009216315113008022,-0.024841327220201492,0.9701545238494873,0.24108904600143433,-0.07812502980232239,-0.4960939288139343,9.609378814697266,0.005859379190951586,-0.001953126396983862,0.0
5739568,-0.009216315113008022,-0.024841327220201492,0.9701545238494873,0.24108904600143433,-0.07812502980232239,-0.4960939288139343,9.609378814697266,-0.003906252793967724,0.001953126396983862,-0.001953126396983862
5744308,-0.009216315113008022,-0.024841327220201492,0.9701545238494873,0.24108904600143433,-0.039062514901161194,-0.4960939288139343,9.609378814697266,-0.003906252793967724,0.001953126396983862,-0.001953126396983862
5749456,-0.009216315113008022,-0.024841327220201492,0.9701545238494873,0.24108904600143433,-0.039062514901161194,-0.4960939288139343,9.609378814697266,-0.003906252793967724,-0.001953126396983862,0.0
5754744,-0.009216315113008022,-0.024841327220201492,0.9701545238494873,0.24108904600143433,-0.07812502980232239,-0.4960939288139343,9.609378814697266,-0.003906252793967724,-0.001953126396983862,0.0
5760552,-0.009216315113008022,-0.024841327220201492,0.9701545238494873,0.24108904600143433,-0.07812502980232239,-0.4960939288139343,9.609378814697266,0.001953126396983862,0.001953126396983862,-0.001953126396983862
5765276,-0.009216315113008022,-0.024841327220201492,0.9701545238494873,0.24108904600143433,-0.039062514901161194,-0.4960939288139343,9.648441314697266,0.001953126396983862,0.001953126396983862,-0.001953126396983862
5770672,-0.009216315113008022,-0.024841327220201492,0.9701545238494873,0.24108904600143433,-0.039062514901161194,-0.4960939288139343,9.648441314697266,-0.003906252793967724,0.005859379190951586,-0.001953126396983862
5775616,-0.009216315113008022,-0.024841327220201492,0.9701545238494873,0.24108904600143433,-0.039062514901161194,-0.4960939288139343,9.542972564697266,-0.003906252793967724,0.005859379190951586,-0.001953126396983862
5780736,-0.009216315113008022,-0.024841327220201492,0.9701545238494873,0.24108904600143433,-0.039062514901161194,-0.4960939288139343,9.542972564697266,-0.003906252793967724,0.0,0.0
5786156,-0.009216315113008022,-0.024841327220201492,0.9701545238494873,0.24108904600143433,-0.039062514901161194,-0.5351564288139343,9.648441314697266,-0.003906252793967724,0.0,0.0
5791632,-0.009216315113008022,-0.024841327220201492,0.9701545238494873,0.24108904600143433,-0.039062514901161194,-0.5351564288139343,9.648441314697266,0.0,0.003906252793967724,0.0
5796080,-0.009216315113008022,-0.024841327220201492,0.9701545238494873,0.24108904600143433,-0.07812502980232239,-0.4960939288139343,9.648441314697266,0.0,0.003906252793967724,0.0
5801496,-0.009216315113008022,-0.024841327220201492,0.9701545238494873,0.24108904600143433,-0.07812502980232239,-0.4960939288139343,9.648441314697266,-0.001953126396983862,0.0,-0.001953126396983862
5807356,-0.009216315113008022,-0.024841327220201492,0.9701545238494873,0.24108904600143433,-0.07812502980232239,-0.4960939288139343,9.648441314697266,-0.001953126396983862,0.0,-0.001953126396983862
5812788,-0.009338385425508022,-0.025024432688951492,0.9701545238494873,0.24108904600143433,-0.07812502980232239,-0.4960939288139343,9.648441314697266,-0.001953126396983862,0.0,-0.001953126396983862
5818076,-0.009338385425508022,-0.025024432688951492,0.9701545238494873,0.24108904600143433,-0.07812502980232239,-0.4960939288139343,9.648441314697266,0.001953126396983862,0.0,0.001953126396983862
5823412,-0.009338385425508022,-0.025024432688951492,0.9701545238494873,0.24108904600143433,-0.07812502980232239,-0.5351564288139343,9.609378814697266,0.001953126396983862,0.0,0.001953126396983862
5828528,-0.009338385425508022,-0.025024432688951492,0.9701545238494873,0.24108904600143433,-0.07812502980232239,-0.5351564288139343,9.609378814697266,-0.003906252793967724,0.003906252793967724,0.0
5833808,-0.009338385425508022,-0.025024432688951492,0.9701545238494873,0.24108904600143433,-0.07812502980232239,-0.4960939288139343,9.582035064697266,-0.003906252793967724,0.003906252793967724,0.0
5839516,-0.009338385425508022,-0.025024432688951492,0.9701545238494873,0.24108904600143433,-0.07812502980232239,-0.4960939288139343,9.582035064697266,-0.001953126396983862,0.0,0.0
5844216,-0.009338385425508022,-0.025024432688951492,0.9701545238494873,0.24108904600143433,-0.07812502980232239,-0.4609376788139343,9.609378814697266,-0.001953126396983862,0.0,0.0
5849276,-0.009338385425508022,-0.025024432688951492,0.9701545238494873,0.24108904600143433,-0.07812502980232239,-0.4609376788139343,9.609378814697266,-0.001953126396983862,0.0,0.001953126396983862
5853976,-0.009338385425508022,-0.025024432688951492,0.9701545238494873,0.24108904600143433,-0.07812502980232239,-0.5351564288139343,9.609378814697266,-0.001953126396983862,0.0,0.001953126396983862
5859260,-0.009338385425508022,-0.025024432688951492,0.9701545238494873,0.24108904600143433,-0.07812502980232239,-0.5351564288139343,9.609378814697266,0.0,0.001953126396983862,-0.001953126396983862
5863952,-0.009338385425508022,-0.025024432688951492,0.9701545238494873,0.24108904600143433,-0.039062514901161194,-0.4960939288139343,9.609378814697266,0.0,0.001953126396983862,-0.001953126396983862
5868992,-0.009338385425508022,-0.025024432688951492,0.9701545238494873,0.24108904600143433,-0.039062514901161194,-0.4960939288139343,9.609378814697266,-0.001953126396983862,0.0,0.0
